"Data file recorded 2012/9/8  12:39:22"
"%  Frequency(Hz)         = 16"
"%  keyboard_telem with hall effect "
"%  motorgains    = [300, 0, 300, 0, 50, 300, 0, 300, 0, 50]
"%  delta         = [8, 8, 8, 8]"
"%  intervals     = [15, 15, 15, 17]"
"% Columns: "
"% time | Rlegs | Llegs | DCR | DCL | GyroX | GryoY | GryoZ | GryoZAvg | AX | AY | AZ | RBEMF | LBEMF "
2204,0,0,0,0,31,-349,209,209,26,1,228,24,25,0
5477,0,0,0,0,32,-347,210,209,22,-2,232,24,24,0
8797,0,0,462,462,32,-347,211,209,29,-4,225,26,26,0
12131,0,0,406,387,41,-368,213,210,70,-1,256,45,46,0
15476,0,0,443,312,204,-422,218,210,64,-121,241,75,82,0
18800,0,0,668,575,403,-509,254,211,77,-4,252,95,100,0
22134,2,2,631,256,546,-682,272,213,66,-207,229,113,117,0
25477,2,2,837,650,585,-946,302,216,128,14,261,118,128,0
28804,2,2,1175,762,874,-1202,346,220,110,-68,266,116,138,0
32137,2,2,1700,950,1538,-1500,333,224,174,-67,297,120,160,0
35477,3,4,1193,500,2471,-2028,290,226,168,149,394,163,184,0
38806,4,4,1418,1231,2658,-2553,241,227,97,40,432,167,177,0
42141,4,4,2262,1531,2898,-3140,194,227,62,456,438,138,177,0
45477,4,6,1962,1043,3040,-3350,0,220,-90,459,470,186,203,0
48809,6,6,1868,1775,1970,-3136,-482,199,-166,-80,383,191,196,0
52145,6,6,2018,1943,624,-3194,-880,165,-93,202,443,199,203,0
55501,8,8,1231,1700,-779,-2845,-1210,120,-401,-122,176,241,216,0
58813,8,8,1606,1850,-2325,-1790,-1272,74,-38,138,264,253,240,0
62148,10,10,1100,837,-2784,-1393,-1234,29,-256,365,158,264,278,0
65503,10,10,818,912,-2803,-1281,-1727,-31,210,-107,5,311,306,0
68816,12,12,743,406,-1970,-1052,-2071,-102,135,113,19,315,333,0
72150,13,12,387,706,-844,-277,-2307,-181,-416,-123,117,334,333,0
75503,14,14,350,387,-2050,-656,-2136,-254,-315,-198,-166,352,350,0
78819,16,16,443,0,-4337,-803,-1703,-314,-487,348,-221,347,381,0
82154,18,17,537,781,-7180,-714,-1282,-360,242,-12,245,342,361,0
85503,18,18,1531,575,-7721,-797,-709,-389,731,270,148,321,372,0
88822,20,20,1437,125,-3206,-1061,-428,-409,250,493,373,310,380,0
92157,21,21,2243,575,771,-783,155,-411,235,309,212,299,372,0
95504,22,22,1943,875,3393,-1409,658,-397,113,339,-7,315,372,0
98826,24,24,1418,1287,3660,-2099,770,-379,-156,22,-108,343,350,0
102160,25,25,368,1962,3183,-2058,983,-355,-663,257,274,399,330,0
105504,26,26,443,2131,-929,-276,1198,-324,-127,1,64,411,321,0
108829,28,28,218,1793,-2734,902,1009,-299,32,957,512,423,339,0
112163,30,28,237,1868,-1840,1112,1354,-263,507,851,522,406,351,0
115505,32,30,837,1118,1721,2149,1673,-218,649,376,329,374,391,0
118833,33,32,1118,275,4737,1699,2008,-161,-135,487,-272,375,436,0
122166,34,34,1081,0,2945,3607,2001,-106,-161,-255,-829,377,439,0
125504,36,34,1250,968,3221,4805,-830,-140,-882,-506,-317,368,415,0
128835,38,35,1343,1475,497,1235,-1375,-191,366,-1006,-103,363,404,0
132170,38,37,1568,875,2355,-739,-782,-225,565,826,20,367,420,0
135505,39,39,987,781,5378,2854,-1932,-296,1037,-670,368,414,425,0
138838,41,41,1418,912,8053,3287,-3054,-402,-546,-654,-495,391,418,0
142173,43,41,1100,987,5154,1419,-3436,-518,-1042,-308,329,408,446,0
145529,45,42,593,968,-441,489,-3818,-645,-445,27,403,435,463,0
148842,46,44,387,856,-4681,224,-2597,-733,-267,30,147,446,453,0
152177,47,46,462,631,-7390,1065,-2075,-797,145,412,89,458,465,0
155533,48,48,1437,800,-5236,2856,-706,-804,793,435,478,422,456,0
158845,50,50,2150,875,977,3174,1220,-739,1096,-1064,773,384,452,0
162179,52,52,2112,1137,7146,1891,1111,-666,-546,502,153,370,438,0
165537,53,52,2675,2131,10943,-1662,329,-616,-6,385,380,356,401,0
168848,54,54,2806,3462,6167,-3641,353,-567,-2048,1190,1041,365,330,0
172183,56,55,1700,0,-4854,-5281,120,-509,-1053,-464,859,424,563,0
175538,58,56,200,0,-13134,-8079,-1420,-489,805,705,705,488,852,0
178851,60,56,106,0,-10443,-7149,-2302,-488,1192,710,512,493,853,0
182186,61,58,1287,3800,-3887,-4309,-2031,-485,-334,332,469,446,269,0
185554,62,58,1362,3800,-4175,-2296,-1375,-475,-578,417,263,442,309,0
188854,63,60,1250,3800,-5904,-1436,-2162,-502,-474,40,-987,464,356,0
192189,65,62,1250,0,-10902,-2225,-2384,-555,1371,1048,236,448,873,0
195543,67,63,2431,1268,-3540,-1273,-1118,-576,361,1772,212,385,511,0
198858,69,65,1831,1850,-1040,4190,-2819,-669,374,620,397,417,496,0
202192,70,66,1887,1981,2958,4873,-3507,-799,-74,-962,87,430,473,0
205541,71,68,1962,1381,7232,3439,-3654,-938,513,-226,27,442,521,0
208861,73,70,1137,893,6932,4453,-4987,-1124,-346,-448,-31,470,531,0
212196,75,72,856,968,5966,2857,-5908,-1346,-508,-451,-359,485,527,0
215542,77,74,1250,781,512,1974,-5090,-1537,-618,302,-288,464,537,0
218865,79,76,1925,931,-3311,2358,-3815,-1698,-409,76,-354,428,529,0
222199,81,78,1362,1493,-5770,1369,-2523,-1829,-94,307,-110,442,483,0
225542,83,80,1231,1081,-10645,1836,-3065,-1988,1303,781,330,449,505,0
228867,85,82,1662,1343,-2236,4121,-1011,-2082,753,-152,836,426,491,0
232202,87,84,1250,1137,3395,4593,-485,-2071,-270,149,-71,448,486,0
235543,88,86,668,1475,2908,3169,153,-2024,563,-258,-233,479,468,0
238870,91,88,612,575,4282,955,7,-1999,1461,-128,128,482,516,0
242205,92,90,443,200,12292,-2528,-1581,-1988,-1425,321,-65,491,520,0
245543,93,92,1212,0,12257,-1473,-1489,-1939,-952,523,-534,450,538,0
248874,94,94,931,0,5529,1968,-2682,-1915,1151,-86,362,481,533,0
252209,96,96,1362,406,11665,2478,-2558,-1876,63,-613,-780,442,493,0
255565,98,98,1568,50,17302,2220,-4175,-1925,-1799,-2048,-703,431,512,0
258877,100,100,1231,1100,6237,-94,-5663,-2038,-738,-523,518,449,456,0
262211,102,101,0,2656,307,-752,-6167,-2208,-456,815,576,515,389,0
265574,104,102,275,3462,-5556,-1209,-5254,-2411,-1501,-291,75,500,362,0
268880,106,104,0,0,-14221,-2490,-4085,-2573,-563,318,739,502,579,0
272214,108,104,0,0,-17448,-2624,-4179,-2714,-394,-773,-333,501,733,0
275568,110,106,462,0,-19180,-1741,-4121,-2854,202,-194,196,474,831,0
278883,112,108,1606,1287,-14850,-1402,-3888,-2979,1796,-914,1252,397,478,0
282218,112,110,2206,762,-3548,-2294,-2119,-3001,-498,984,933,397,506,0
285569,113,112,2281,743,-631,-3308,-815,-2954,-19,377,833,409,507,0
288886,115,114,2168,1512,-830,-4428,-76,-2893,61,43,472,415,466,0
292221,117,116,1212,1250,3813,-7242,-290,-2859,258,81,303,450,464,0
295575,119,118,1043,1362,4879,-6134,-646,-2812,754,134,75,475,474,0
298890,121,119,312,1943,6381,-4902,-793,-2762,372,542,-319,498,459,0
302224,123,120,200,2018,6540,-5780,-797,-2752,-1037,1301,567,504,439,0
305569,125,122,537,1606,1630,-3543,-265,-2672,236,-445,836,470,461,0
308893,126,124,1887,1456,3361,-1876,-639,-2583,462,583,362,414,469,0
312228,127,126,1700,143,4387,-2326,-145,-2473,992,712,-381,424,523,0
315569,129,128,1700,875,6308,-47,132,-2313,-284,279,61,424,484,0
318896,131,130,2037,668,9702,3013,-2370,-2202,-483,-395,-88,406,495,0
322230,133,132,912,1775,4795,2873,-2362,-2117,-928,287,555,450,420,0
325569,135,133,68,1887,4532,3767,-3822,-2117,-1013,-242,439,495,430,0
328900,137,134,312,2206,-852,4105,-5577,-2213,-1279,-1240,-299,482,429,0
332234,139,136,1662,1850,-10038,2041,-4009,-2242,-667,276,118,426,448,0
335591,140,138,1700,1231,-13812,-442,-1940,-2271,149,379,107,424,481,0
338902,141,140,950,425,-12394,973,-1827,-2313,770,-325,-524,464,508,0
342237,143,142,1737,312,-15217,3004,-1244,-2357,2011,324,750,422,514,0
345595,145,144,1643,556,-4959,2766,648,-2337,-74,325,1016,427,501,0
348906,147,146,1887,1156,-1715,1534,309,-2278,296,888,1031,414,469,0
352241,149,148,1456,706,667,1545,259,-2223,336,879,590,421,477,0
355595,151,150,818,875,5257,2279,1616,-2089,-717,458,-149,455,468,0
358909,153,152,387,1268,4045,2005,1264,-1970,820,-436,-513,478,463,0
362243,155,152,443,968,3369,-314,-438,-1853,221,510,-207,475,479,0
365595,157,153,106,1062,4190,-552,-349,-1687,723,191,237,477,490,0
368912,158,155,1043,1081,7906,1257,9,-1494,-406,106,-33,459,489,0
372246,159,157,1006,837,6245,1695,-1328,-1371,1311,679,-417,445,486,0
375595,161,159,1175,781,7185,1546,-1550,-1292,935,-534,-555,436,489,0
378916,163,161,1625,1025,12752,623,-2290,-1233,-1277,98,566,412,476,0
382250,165,163,1512,1287,3417,-1309,-3310,-1207,-3,-697,603,418,462,0
385596,167,165,556,1737,3911,-3412,-4064,-1213,-1388,341,706,453,422,0
388919,169,166,875,2150,-898,-5181,-3662,-1261,-1355,121,174,452,416,0
392253,170,167,725,2281,-13067,-6212,-3699,-1351,-262,182,-134,460,425,0
395595,171,169,1250,1756,-18484,-5193,-3645,-1463,919,349,-29,448,453,0
398922,173,171,931,1006,-15217,-3666,-1792,-1510,1688,-318,277,449,477,0
402256,175,173,2243,31,-8079,-2382,-652,-1510,526,857,1086,379,529,0
405597,177,175,2281,1306,2106,-3079,-1033,-1517,-600,266,420,377,461,0
408925,178,177,3106,1193,-631,-2434,796,-1468,217,591,1071,365,467,0
412259,179,179,1793,1418,1935,-4462,1500,-1412,56,-283,314,435,455,0
415618,181,180,950,1700,4037,-5987,460,-1378,794,728,381,464,440,0
418928,183,181,837,1831,6246,-4621,-183,-1379,89,773,110,470,449,0
422286,185,183,725,2281,6524,-1540,-93,-1386,-211,161,24,476,425,0
425621,187,185,575,2300,5139,323,790,-1288,76,496,858,468,408,0
428931,189,187,1118,1681,4914,-511,822,-1188,-683,-194,-210,439,441,0
432289,191,189,1587,706,4380,-1384,607,-1050,527,1284,13,414,493,0
435621,191,191,2131,0,4129,-888,1473,-829,312,967,22,401,524,0
438934,192,193,1981,200,7361,3480,961,-674,-453,920,-166,425,504,0
442292,194,193,1118,2037,5475,5318,-1644,-665,-494,-895,-631,471,438,0
445621,196,194,837,2243,2764,4827,-2263,-678,-251,87,5,470,427,0
448938,198,196,1287,1850,4362,5344,-3562,-751,-700,263,69,446,448,0
452296,200,198,1437,1306,-855,4018,-3942,-894,312,-829,131,438,477,0
455622,202,200,1212,837,-6164,1795,-2286,-975,-56,168,331,450,502,0
458942,204,202,968,481,-4884,1955,-1289,-1024,-1899,78,-1112,447,505,0
462299,206,204,481,293,-12311,3460,-180,-1080,446,305,431,473,515,0
465622,207,206,1625,668,-11421,2728,-71,-1122,561,562,78,428,495,0
468945,208,208,1700,968,-9394,4140,843,-1082,2047,680,1531,440,479,0
472302,210,210,1906,1287,-2461,4801,2247,-1000,81,-305,39,429,462,0
475623,212,210,1437,1550,125,5382,1862,-943,392,36,-169,438,464,0
478947,214,211,781,1287,2414,4278,2953,-809,240,-265,-193,473,494,0
482304,216,212,893,1587,3819,845,1503,-713,158,-250,-127,467,494,0
485622,218,214,87,1587,8151,-2606,1411,-598,-1261,95,122,494,478,0
488950,220,216,200,950,2040,-3539,266,-486,-566,307,-472,488,512,0
492309,222,218,950,743,-2431,-1783,-1080,-393,1516,79,-39,448,523,0
495623,224,220,1568,406,8593,-2031,-1346,-320,207,828,345,399,525,0
498954,225,222,2693,481,10234,-3368,-2749,-291,-790,-471,-83,371,521,0
502312,226,224,1925,2056,4679,-6968,-4525,-318,185,479,476,412,437,0
505644,228,226,950,2112,992,-6301,-5552,-436,-908,-208,611,448,418,0
508957,230,228,556,1643,-3871,-5651,-4507,-556,-617,-112,746,469,443,0
512312,232,229,650,1868,-10052,-5344,-3184,-623,-39,566,285,464,447,0
515648,234,230,893,1662,-12716,-3871,-3238,-749,534,-39,202,451,474,0
518960,236,232,1062,1006,-11170,-2012,-1759,-851,984,-842,-162,426,493,0
522312,237,234,2318,387,-4538,985,506,-850,1417,-516,852,375,526,0
525648,238,236,2393,1681,1549,1524,1641,-793,-433,-142,541,387,457,0
528963,240,238,2468,2206,1066,484,3224,-689,131,-322,610,383,429,0
532313,242,240,1156,1943,1745,-3393,3851,-593,16,-126,736,453,443,0
535648,244,242,387,1287,3660,-4430,2593,-538,849,1106,187,478,462,0
538966,246,244,687,1475,6893,-1018,2438,-481,510,893,242,462,452,0
542313,248,244,162,2468,8176,3006,3055,-431,-230,-395,157,490,431,0
545649,250,245,443,2206,5114,2734,2950,-369,52,318,265,459,445,0
548970,251,247,1662,1343,5970,2595,3930,-195,458,1049,96,426,491,0
552313,252,249,1737,1268,10049,2607,2719,-39,275,589,-521,422,495,0
555648,254,251,1550,668,9223,3105,3017,165,-1059,750,-629,416,511,0
558973,256,253,1193,762,8832,4219,1793,344,-781,-250,245,435,506,0
562313,258,255,593,1793,3540,2289,136,420,536,-726,143,467,451,0
565649,260,257,50,1362,6245,1728,510,476,-371,1205,367,480,458,0
568976,262,259,68,1306,959,3453,-1075,448,-987,-185,262,479,461,0
572314,264,260,668,1943,-9232,731,-947,421,-599,256,363,447,443,0
575655,265,261,987,1531,-12994,131,-1113,360,192,-383,36,446,481,0
578979,266,262,743,1156,-10546,1254,-483,275,-713,-253,-1173,459,501,0
582335,268,264,1456,725,-16844,2102,1419,261,452,-452,33,421,524,0
585671,270,266,1493,875,-14739,1589,2538,248,758,-625,674,419,516,0
588982,272,268,1212,1493,-11925,1621,3800,319,633,-130,319,418,467,0
592338,274,270,1437,1306,-5723,970,3195,375,964,419,1427,422,493,0
595674,276,272,1175,912,1767,293,3941,490,95,1065,221,420,498,0
598985,277,274,1343,1175,3161,806,4636,669,-396,-71,-119,443,484,0
602339,278,276,931,1193,2930,-638,5226,874,533,-225,-261,465,483,0
605680,279,278,875,818,5447,-4022,3032,1055,-592,-168,165,484,503,0
608989,281,280,781,800,2888,-4440,1357,1239,642,461,-295,473,488,0
612339,283,282,1062,331,5462,-2259,1553,1461,712,346,264,458,513,0
615675,285,284,1400,706,13190,-1937,1595,1651,-1229,-960,-387,424,477,0
618992,287,286,1850,162,7949,-2346,-298,1741,-799,-2048,-22,400,506,0
622346,289,288,1531,1343,3886,-5635,-1343,1801,61,1230,931,417,443,0
625675,290,288,2037,1775,2883,-7136,-1904,1796,-178,772,658,390,436,0
628995,291,290,1268,1343,-230,-8246,-2564,1700,-182,226,797,447,459,0
632339,293,292,1193,1175,-2960,-7282,-1333,1607,69,222,561,451,468,0
635675,295,294,875,0,-4050,-4941,-727,1484,60,59,-54,452,521,0
638999,297,296,762,0,-3544,-2747,323,1374,-955,-79,-524,458,525,0
642340,299,298,1343,725,-6335,-1016,1011,1324,217,-1132,178,427,476,0
645676,301,300,1512,725,-7117,-823,1392,1291,670,-8,864,418,476,0
649001,303,302,1062,837,-2269,-1451,2519,1275,-344,-958,485,426,454,0
652346,305,304,1212,1268,479,-1459,2481,1260,726,-143,519,434,447,0
655676,306,306,968,818,4157,-352,2239,1207,212,1004,461,447,455,0
659005,307,306,781,1512,7005,1882,1589,1172,-871,435,-29,473,450,0
662362,308,308,1231,1531,2296,4667,798,1103,-641,184,-219,465,449,0
665697,310,310,162,1156,11,5911,531,1063,41,365,159,506,453,0
669008,312,312,537,762,619,6561,676,1080,838,182,169,486,474,0
672366,314,314,1137,950,7715,5697,236,1071,-80,-331,-321,454,464,0
675699,316,316,1943,518,9018,5478,-711,1083,-1747,538,-193,395,471,0
679012,318,318,1006,931,4414,5146,-2146,1045,-214,-498,308,445,449,0
682365,320,319,1531,1325,1341,3962,-2872,990,91,1071,494,417,444,0
685700,321,320,2431,1193,3558,661,-3061,910,1514,102,1241,369,451,0
689015,322,322,2281,1400,5064,-3659,-2637,783,-1079,538,457,393,440,0
692366,324,324,706,1287,-1795,-6813,-2748,618,-1002,569,-401,477,446,0
695699,326,326,518,481,-10120,-4376,-2803,411,634,-204,58,471,473,0
699018,328,328,968,31,-6275,-2764,-1985,250,-490,-106,-214,447,497,0
702366,330,330,1062,331,-7680,-1582,-202,120,-827,-476,-181,442,481,0
705700,332,332,987,350,-15589,-1028,68,-22,440,-121,397,446,480,0
709022,334,332,1081,743,-10419,-727,184,-179,1087,247,705,425,475,0
712367,335,333,1156,1306,-2971,-2000,1288,-234,463,-18,315,437,461,0
715700,336,335,1475,1193,-901,-3316,1609,-226,903,37,271,436,467,0
719024,337,337,743,1156,2798,-5108,1451,-229,109,333,233,491,469,0
722367,339,339,650,875,1569,-4066,1226,-241,302,661,-103,496,484,0
725701,341,341,0,406,2245,-1714,632,-211,530,105,278,518,493,0
729027,343,343,893,706,3837,-960,414,-157,402,141,20,467,477,0
732367,345,345,331,312,6174,-187,525,-81,-184,364,-288,497,498,0
735701,347,347,1118,387,9625,-140,-476,-15,-1049,358,-352,439,478,0
739030,349,349,1362,1175,5923,-865,-1437,-19,-944,998,813,426,452,0
742388,351,349,987,1925,4749,-179,-2559,-76,296,-366,137,446,428,0
745701,353,351,500,2168,1936,972,-2729,-171,-908,1316,1005,456,399,0
749034,354,353,1287,1568,-4601,2260,-4120,-332,137,-579,809,446,431,0
752392,355,355,1831,1156,-6574,-932,-4673,-521,130,122,959,417,453,0
755725,357,357,725,500,-6895,-1005,-4302,-734,-35,-40,54,460,472,0
759037,359,359,875,425,-7715,204,-3492,-921,-345,282,-369,452,492,0
762392,361,360,1887,368,-6336,2760,-1012,-1023,112,18,382,398,495,0
765728,363,362,1156,987,-2970,3407,825,-1046,568,-952,275,437,462,0
769040,365,363,1737,856,-1564,2657,1233,-1033,92,-1740,197,406,469,0
772392,365,365,1793,931,-408,2026,2211,-980,984,197,371,419,465,0
775733,366,367,1081,968,4801,2080,3034,-907,158,-212,-162,473,463,0
779043,367,369,743,1493,5921,1690,3539,-803,-611,135,-29,507,435,0
782393,368,371,1118,1662,1004,970,2982,-688,158,687,233,503,426,0
785734,369,372,1137,1681,-1798,-272,1800,-565,336,-477,530,502,425,0
789047,371,373,2037,725,-591,-1642,1702,-422,1431,32,360,454,492,0
792393,373,374,1831,1006,7000,-2104,2194,-258,580,534,-541,465,493,0
795734,375,375,1681,537,12672,1008,819,-150,-1891,-571,-1138,457,518,0
799050,377,377,1812,1062,6237,2145,-1675,-116,-827,-2048,-423,450,490,0
802393,379,379,2581,1475,668,-4261,-2645,-111,-15,-351,512,409,468,0
805735,381,381,818,1793,1900,-6316,-3681,-164,316,-321,704,487,435,0
809053,383,383,1081,1550,3959,-6771,-3489,-267,-1320,724,38,473,448,0
812393,385,385,1006,500,-6257,-3157,-2137,-336,-160,234,371,477,504,0
815735,387,387,556,31,-9040,-2254,-1704,-395,-311,127,-105,485,513,0
819056,389,389,518,0,-9029,-2302,-1650,-487,-48,-146,242,487,536,0
822394,391,391,987,106,-9584,-1168,-764,-561,471,174,542,462,509,0
825736,392,393,1775,706,-6740,-1385,-307,-616,1418,677,932,436,477,0
829059,394,394,1175,1568,-2965,-1764,1056,-621,605,-681,317,468,447,0
832415,395,395,1362,1643,24,-3658,1808,-584,1250,149,452,458,443,0
835735,397,397,181,1662,6179,-5044,1494,-550,-542,349,-161,521,442,0
839063,399,399,331,1550,3043,-866,1429,-522,-992,878,153,513,448,0
842419,401,401,518,1550,-1228,2133,808,-482,632,11,-47,503,448,0
845735,403,403,706,968,1644,1509,1446,-392,40,-266,546,477,463,0
849066,405,405,1456,1043,3848,1340,2506,-234,-306,550,242,437,475,0
852419,407,407,1981,31,2955,1637,1026,-116,603,-859,-492,409,513,0
855736,409,408,1625,387,7226,3036,1447,57,415,1095,63,412,494,0
859070,411,409,1512,1212,8641,5677,-314,193,-116,544,867,418,466,0
862418,412,410,2093,1962,5411,3885,-1081,294,1070,-1066,274,403,442,0
865760,413,412,1625,2262,9237,20,-2916,312,-1326,165,25,428,410,0
869072,414,414,987,1775,1651,-1091,-4468,204,-1320,-443,180,478,436,0
872419,416,416,1081,1231,-11149,-1998,-3478,69,-51,162,177,473,465,0
875761,418,418,1625,275,-14531,-931,-3291,-71,500,309,-378,428,500,0
879076,420,420,1756,387,-11458,-445,-2177,-208,-622,791,-282,421,510,0
882420,422,422,1887,0,-9330,369,-115,-307,556,776,1531,414,524,0
885767,424,423,1737,706,-4842,-151,487,-402,98,-49,372,422,493,0
889078,426,424,1343,1306,-1726,-556,250,-488,992,-850,327,443,461,0
892420,427,425,1062,1512,372,-318,1647,-492,926,389,350,458,466,0
895762,428,427,950,1343,5363,-583,2012,-483,27,-64,-201,480,475,0
899082,430,429,0,1231,4309,-444,1692,-498,-41,522,-110,522,465,0
902420,432,431,856,781,3138,-2111,680,-503,155,584,458,485,505,0
905762,433,433,743,462,4324,-405,541,-434,266,571,522,491,506,0
909085,435,435,1925,743,8077,1282,1652,-299,-764,82,345,428,491,0
912441,437,437,2093,612,6575,2305,566,-167,2003,1005,-585,419,498,0
915768,439,439,2168,818,10175,2785,-161,-63,-1079,271,-345,415,487,0
919088,441,441,1212,1475,8528,1510,-1915,-56,-538,11,766,450,452,0
922445,443,442,706,1343,1046,386,-2617,-84,1132,374,432,477,459,0
925762,445,443,931,968,3859,-1100,-3352,-137,-1219,77,433,449,479,0
929092,446,445,1287,1100,-1122,-4069,-2873,-203,-781,-264,-12,446,472,0
932452,448,447,762,950,-12175,-4045,-3455,-302,287,661,-75,474,480,0
935762,449,449,818,68,-12591,-2080,-3445,-442,1044,-221,-309,471,511,0
939095,450,451,912,500,-9830,-1426,-1011,-530,208,564,835,482,488,0
942445,452,453,1625,200,-3802,-1112,439,-563,-538,-411,360,444,504,0
945787,454,455,968,725,-2875,-869,805,-583,-487,408,627,463,460,0
949098,456,457,931,1156,-3814,-1067,1652,-556,1092,234,612,465,437,0
952446,458,459,406,968,4128,-1097,2114,-536,-209,-425,-54,493,447,0
955790,460,460,12,1625,3625,-837,2498,-536,-810,402,-234,514,428,0
959101,462,461,0,1887,-490,-98,1409,-524,36,294,437,514,414,0
962452,464,463,500,1287,792,941,1642,-518,396,-467,458,488,462,0
965790,466,465,893,725,3471,537,2573,-428,101,700,124,451,476,0
969104,468,467,1418,481,3169,105,1745,-339,223,-493,-450,423,489,0
972447,470,469,1906,968,5264,241,1796,-192,-103,229,-36,397,463,0
975791,470,471,2337,425,9460,729,-265,-61,-580,-647,360,390,476,0
979107,472,473,2581,537,5848,-1370,-1064,14,775,-450,733,377,470,0
982446,474,473,1193,2037,10348,-4147,-2397,42,-2044,-625,881,451,422,0
985791,476,474,556,2131,1856,-4199,-4359,-25,-1664,-422,367,469,417,0
989110,478,476,293,1306,-8160,-2534,-4457,-161,8,118,636,483,461,0
992469,480,478,912,31,-12081,-851,-3986,-301,352,1035,229,450,529,0
995792,482,480,1025,0,-10584,989,-3167,-408,59,-1151,-71,428,535,0
999114,483,482,2112,0,-7763,2023,-1468,-505,761,423,862,402,537,0
1002470,484,484,2150,31,-4932,2469,-1018,-600,32,-210,529,400,513,0
1005792,486,486,1418,1062,-3158,1800,-135,-657,-359,-322,267,423,442,0
1009117,488,488,1156,1343,-4262,-452,152,-673,1092,309,360,437,427,0
1012470,490,489,368,1062,3033,-1866,782,-666,506,167,-84,479,458,0
1015792,492,490,387,1250,5255,-1165,657,-697,-345,430,-535,478,464,0
1019120,494,491,0,1400,4309,-587,-213,-721,329,708,-207,499,456,0
1022470,496,493,518,893,4551,1029,60,-714,-79,672,396,455,483,0
1025792,498,495,1025,1025,5848,2242,963,-624,458,-321,448,428,476,0
1029123,499,497,1737,837,7831,1921,312,-533,758,142,-233,422,486,0
1032470,500,499,1850,743,10667,2397,-496,-444,-301,-502,-800,416,491,0
1035793,502,501,1400,443,11324,1166,-2011,-417,-1211,-256,-141,424,491,0
1039126,504,503,612,687,2909,177,-2904,-399,350,-857,163,466,478,0
1042470,506,505,275,1062,4823,428,-3197,-392,-104,132,714,484,458,0
1045795,508,506,162,1100,1609,7,-3634,-474,-1309,-67,-219,474,456,0
1049130,510,507,387,1043,-9631,-936,-3889,-609,-413,5,455,462,475,0
1052471,512,508,593,1193,-13399,-673,-3979,-758,210,-150,183,451,483,0
1055798,514,510,818,650,-11920,1144,-3160,-909,1027,-433,-279,423,496,0
1059133,515,512,1250,575,-8601,1859,-653,-995,557,-211,1298,432,500,0
1062471,516,514,1475,725,-4531,1806,80,-1071,144,173,814,420,492,0
1065802,518,516,1625,500,-3498,1074,696,-1093,116,-395,404,396,488,0
1069136,520,518,1400,950,246,152,1982,-1082,834,533,554,408,464,0
1072471,522,520,687,968,6975,753,3268,-1061,-112,-87,-56,446,463,0
1075805,524,522,237,1700,4855,1034,3583,-1003,-688,379,6,470,424,0
1079140,526,523,68,2056,15,-4012,2270,-988,-296,-689,353,479,421,0
1082495,528,524,0,1343,-3738,-7322,1639,-929,268,533,570,482,459,0
1085808,529,526,1006,762,-3159,-7639,278,-887,1276,-246,-381,429,490,0
1089142,530,528,1268,181,5030,-4153,2129,-746,846,670,-311,431,521,0
1092499,532,530,1887,837,6003,-567,740,-586,-942,-913,-701,398,486,0
1095811,534,532,2318,631,1854,-1390,-795,-472,717,-188,337,359,481,0
1099146,536,534,2656,1212,6133,-4020,-2362,-421,90,-430,864,357,450,0
1102503,536,536,2131,1943,8262,-3048,-2923,-413,-102,-400,358,401,411,0
1105815,538,536,1325,2150,5306,-4016,-2787,-455,-1390,184,100,428,416,0
1109149,540,537,1006,1906,-4828,-3994,-5315,-589,-891,89,344,445,445,0
1112504,542,539,593,650,-8794,-2611,-4887,-737,247,-74,366,467,512,0
1115818,544,541,518,856,-8962,-722,-2907,-833,743,-236,-298,455,485,0
1119153,546,543,425,87,-6609,2044,-1429,-902,111,109,-69,460,526,0
1122505,548,545,1193,743,-5564,3405,-1177,-959,1088,-865,820,419,491,0
1125821,548,547,1793,500,-4851,2706,442,-939,449,226,609,403,488,0
1129155,549,549,1700,1118,-1844,1062,1967,-879,363,540,53,424,455,0
1132505,551,551,556,1081,1248,-11,1888,-850,646,427,427,485,457,0
1135824,553,553,612,1193,4486,917,2197,-792,-658,371,-15,482,451,0
1139159,555,554,237,1493,1608,2619,2303,-704,-211,747,-18,486,451,0
1142506,557,555,462,1400,1116,3359,2275,-570,1100,264,153,474,456,0
1145827,559,556,725,1043,6638,2906,3029,-385,480,-359,66,460,491,0
1149162,561,558,856,968,14123,2785,2363,-211,-442,-919,-387,453,495,0
1152505,563,560,856,1043,11015,3299,343,-87,-218,-765,-362,453,491,0
1155830,565,562,1400,556,12386,2439,-907,5,-458,119,-579,408,501,0
1159165,565,564,1231,837,3763,1566,-1949,69,815,31,-14,449,486,0
1162505,566,566,1156,1268,4112,1047,-3157,69,-714,-149,325,469,463,0
1165834,568,568,1025,837,-999,363,-3360,-15,-634,-748,535,460,470,0
1169168,570,570,1362,781,-6415,-2609,-2679,-101,-874,30,-17,442,473,0
1172506,572,572,781,556,-10192,-1636,-2977,-216,53,192,-330,473,485,0
1175837,574,574,537,68,-8213,-11,-1935,-338,-656,-46,-730,470,511,0
1179172,576,575,368,743,-11814,514,-799,-465,379,-494,278,479,491,0
1182506,578,576,893,987,-12168,394,-508,-593,1239,194,817,451,478,0
1185840,580,577,1156,1137,-9466,302,1377,-621,976,-922,423,421,470,0
1189175,581,579,1925,1062,-3546,-809,2584,-591,1829,512,791,412,474,0
1192531,582,581,1325,968,4281,-1770,2656,-517,258,300,292,444,479,0
1195843,584,583,668,1531,6631,-1795,2814,-496,20,-557,23,479,449,0
1199178,586,585,181,875,4756,-3777,2413,-443,-1563,407,-245,489,468,0
1202532,588,587,368,593,-1928,-4764,1098,-384,-174,-257,36,479,483,0
1205846,590,589,443,406,-2791,-5104,-391,-323,1662,-27,244,475,493,0
1209181,592,591,818,575,6815,-3795,1051,-198,402,-43,-165,439,484,0
1212532,594,593,1643,181,10727,-1091,1033,-79,-2048,-970,-303,411,505,0
1215849,596,593,1568,1156,5741,-990,-1740,32,-748,-1101,240,399,469,0
1219184,596,594,2075,1812,473,-3722,-2163,117,192,586,971,404,450,0
1222531,598,596,2356,2056,2612,-2750,-3194,108,-101,909,909,389,437,0
1225853,600,598,2037,2018,1673,-3496,-2218,83,-621,796,1165,406,439,0
1229188,602,600,781,1193,-1035,-4163,-3724,4,-1040,427,237,457,467,0
1232532,604,602,631,237,-5307,-3270,-3609,-122,-493,192,197,465,518,0
1235856,606,604,162,143,-7961,-811,-2172,-251,-129,156,420,474,507,0
1239190,608,606,875,0,-5078,1503,-116,-314,125,-253,261,452,528,0
1242540,609,608,1868,425,-4184,1933,886,-355,414,34,713,399,492,0
1245860,610,610,1231,687,-4883,1528,1495,-380,419,-898,143,433,462,0
1249194,612,611,1362,1887,-1197,160,2493,-373,165,-288,27,426,430,0
1252533,614,612,1175,1643,-421,763,3362,-363,-140,433,524,436,443,0
1255863,616,614,200,1156,660,2794,3410,-330,91,489,168,472,453,0
1259197,618,616,0,1212,1825,3511,4089,-213,172,-155,-114,497,450,0
1262533,620,618,0,593,2453,3489,3967,-61,715,-40,562,491,483,0
1265866,622,620,162,518,9189,2890,3392,105,-287,3,-190,474,487,0
1269201,624,622,687,462,12316,3323,2583,284,194,-174,-117,430,474,0
1272563,626,624,1137,1006,12736,3338,1273,429,-936,628,-569,422,461,0
1275869,626,626,1812,818,9104,2776,-141,509,-1283,-163,548,402,471,0
1279204,627,627,1756,1081,1136,2019,-1679,549,-93,-367,406,421,473,0
1282561,629,628,2018,1400,195,673,-2357,536,-436,-193,524,407,456,0
1285872,631,630,1962,1250,-1404,-1520,-2405,486,-336,-1086,289,394,448,0
1289206,633,632,1343,968,-2409,-6136,-2571,421,-227,590,104,427,463,0
1292561,635,634,612,350,-5516,-5873,-2743,293,111,509,-506,466,496,0
1295875,637,636,256,0,-6048,-3618,-1469,166,-701,832,-425,469,504,0
1299209,638,638,781,200,-8411,-3378,-380,71,64,88,-221,473,488,0
1302566,639,640,1156,481,-14215,-2991,-118,-20,548,91,654,453,473,0
1305878,641,642,612,350,-12634,-2205,1021,-63,1993,-693,294,466,464,0
1309213,643,643,1325,1137,-1740,-3004,1589,-48,254,-305,27,428,454,0
1312569,645,644,1175,1625,446,-4259,2298,35,168,423,811,436,428,0
1315882,647,646,200,1118,209,-4261,2414,78,366,594,429,472,439,0
1319216,649,648,256,781,509,-812,2048,110,-103,712,-296,469,457,0
1322570,651,650,0,425,353,1016,1790,220,-41,34,-46,493,476,0
1325885,653,652,0,518,416,634,1943,348,656,86,356,496,471,0
1329219,655,653,387,593,4517,381,1686,501,778,-637,-16,446,467,0
1332570,657,655,856,275,9824,444,1048,603,-194,-430,-178,421,484,0
1335888,657,656,1550,856,9824,-564,121,723,-354,-451,-98,416,469,0
1339222,658,658,1587,1475,4583,1169,-922,807,-78,220,431,430,436,0
1342571,660,660,1775,1643,1563,1495,-1281,835,-479,133,881,420,427,0
1345891,662,662,1981,1212,-85,-326,-1579,789,-333,803,1279,393,434,0
1349225,664,664,1625,837,-830,-3833,-2872,672,-110,292,657,412,454,0
1352572,666,665,406,443,-1645,-3845,-2602,544,-290,219,-29,477,491,0
1355895,668,667,12,0,-4308,-1678,-2069,401,-23,-696,-584,482,505,0
1359229,669,668,1287,162,-4001,935,-470,281,217,213,-215,446,506,0
1362571,670,669,1681,950,-3786,1651,826,200,608,14,380,425,480,0
1365898,671,670,1343,1343,-4266,1251,1336,114,713,377,631,443,459,0
1369232,673,672,1475,1381,-447,403,2123,57,64,-745,22,436,457,0
1372571,675,674,1156,2131,1606,-868,2794,38,128,385,652,453,417,0
1375901,677,676,387,912,2295,392,3203,57,-268,169,-48,478,466,0
1379235,679,678,0,1437,1817,2598,3116,115,24,-116,176,522,454,0
1382593,681,679,256,1212,194,1574,3013,214,57,189,394,485,466,0
1385904,683,680,387,1025,720,77,2925,358,886,350,394,478,492,0
1389238,685,681,818,1118,4713,1226,2857,520,1025,-130,-121,439,487,0
1392596,687,682,931,968,10175,3796,2543,675,-1103,-693,-892,433,511,0
1395907,688,683,1962,2150,6231,4773,159,760,-148,-474,-38,410,464,0
1399241,689,685,2093,1550,756,1756,-974,816,617,-1578,119,403,496,0
1402597,691,687,1981,1831,1478,-755,-1926,801,-987,488,678,409,481,0
1405911,693,689,1700,1062,279,-4641,-1721,759,793,308,1307,408,506,0
1409245,695,691,1456,987,2434,-8233,-1586,714,-1228,94,-313,421,510,0
1412597,697,693,518,725,-4847,-6254,-1320,640,-322,41,-68,471,524,0
1415914,699,695,612,0,-7457,-4210,-549,574,32,640,-261,466,557,0
1419248,700,697,931,293,-7053,-3046,689,523,-1076,230,-386,465,531,0
1422597,701,699,1456,856,-11824,-2724,1022,480,835,-218,584,437,501,0
1425917,703,701,968,968,-9569,-2139,1922,476,1626,-332,587,447,479,0
1429252,705,703,1287,1587,1692,-3776,2958,512,-995,-52,608,430,446,0
1432597,707,705,931,1868,470,-3950,3858,572,-446,96,723,449,431,0
1435920,709,707,0,893,-1450,-1780,3064,615,169,579,388,488,483,0
1439254,711,708,106,1043,1388,956,3542,693,210,-29,-84,477,491,0
1442597,713,709,237,1400,1589,1505,3951,813,346,37,156,470,472,0
1445923,715,710,181,781,2217,1427,3337,946,1262,478,-175,473,521,0
1449257,717,712,518,818,7394,3447,3106,1083,792,-259,217,455,503,0
1452597,718,714,1287,1062,12504,3193,1922,1193,-233,-1387,-640,414,490,0
1455927,719,716,1362,1587,6344,1329,860,1309,155,-376,-160,426,462,0
1459261,721,718,1512,1550,4580,873,-379,1379,-779,366,-79,418,464,0
1462598,723,720,1118,1493,468,1652,-495,1428,-569,396,351,439,467,0
1465929,725,722,1006,387,-3334,1691,-1238,1404,222,1578,1292,429,510,0
1469264,727,724,1962,256,-232,-1688,-1081,1344,334,298,748,394,517,0
1472619,728,726,1062,0,3586,-3378,-1009,1271,-417,204,-157,442,535,0
1475933,729,728,406,50,1373,-2438,-399,1192,-811,-122,-273,477,512,0
1479267,730,730,1268,687,-3088,76,322,1115,-400,701,-368,447,478,0
1482623,732,732,800,1118,-6081,1602,1587,1064,837,-1206,218,472,455,0
1485936,734,732,1156,1700,-5440,1326,2855,1056,1312,-644,352,437,440,0
1489270,736,733,631,2206,1986,-212,3524,1072,-1535,-233,-77,465,429,0
1492623,738,735,837,1700,-2330,1736,3761,1098,933,-318,426,454,456,0
1495940,740,737,237,1512,-531,3010,4002,1134,103,-160,434,470,450,0
1499273,742,739,0,1381,749,593,4644,1200,-550,-203,284,490,457,0
1502624,744,741,0,406,-2801,-842,4163,1325,1201,458,193,509,509,0
1505942,746,743,162,387,1632,-452,2786,1442,-215,576,33,474,510,0
1509277,748,745,1062,556,6755,1383,2046,1567,-769,-83,31,442,501,0
1512624,749,747,875,987,2315,2720,1327,1662,61,-468,130,436,462,0
1515946,750,747,1531,1643,478,1777,-203,1705,-41,386,7,417,459,0
1519280,752,748,2693,1718,-2690,373,-1108,1712,61,-598,250,355,471,0
1522624,754,749,2468,1043,-2961,-2978,-682,1707,1244,341,1150,367,523,0
1525949,755,751,1962,593,3139,-5478,-1314,1645,799,-420,818,410,531,0
1529284,756,753,1906,331,9796,-5641,-406,1600,-746,555,90,413,545,0
1532624,758,755,537,631,4903,-4787,231,1547,-2048,-768,-88,486,529,0
1535952,760,757,968,1812,-3445,-4439,-327,1445,671,893,-174,463,466,0
1539287,762,759,500,968,-5360,-1792,586,1342,132,91,-204,472,495,0
1542625,764,761,931,1137,-4735,-63,2250,1317,-316,-392,-751,449,486,0
1545955,766,763,856,1287,-5034,-2359,1870,1265,-833,-109,487,437,462,0
1549289,768,765,931,1156,-8580,-986,2357,1215,531,-295,612,433,469,0
1552653,769,767,1325,1043,-5881,1001,3484,1220,455,208,521,428,475,0
1555958,771,769,950,275,-168,1322,4228,1255,887,111,464,448,500,0
1559317,772,771,218,368,4479,957,4464,1334,378,-91,-319,487,495,0
1562650,773,772,462,743,4426,1848,3477,1416,1178,377,-238,490,491,0
1565961,775,774,68,875,9594,681,2233,1497,-688,240,137,495,484,0
1569319,777,775,612,1512,8603,949,1163,1549,67,-236,151,482,466,0
1572649,779,777,293,1137,8153,1009,226,1595,-563,144,-48,483,470,0
1575965,781,779,1231,1062,5984,385,-729,1606,-946,-35,115,433,474,0
1579323,783,781,1250,1325,-1701,-318,-981,1607,-1007,354,358,432,460,0
1582656,785,783,743,875,-6013,-287,-1660,1568,-229,609,281,459,484,0
1585968,787,785,518,218,-6386,909,-1668,1505,-179,-1054,-113,455,503,0
1589325,788,787,1381,162,-5032,531,-1151,1420,753,-201,1311,425,506,0
1592650,790,787,968,781,1674,-1097,-627,1311,-911,197,-35,447,505,0
1595971,791,789,256,875,-2202,-845,119,1205,-82,-370,-233,485,484,0
1599329,793,791,856,1025,-4147,1140,861,1114,-299,-17,-86,453,476,0
1602650,795,793,1268,1043,-5272,1242,2063,1053,506,302,-190,431,475,0
1605975,797,793,1231,1775,-2820,-548,3052,1004,-181,-853,366,417,452,0
1609332,799,795,875,1493,-1665,856,4556,1016,-362,-47,452,436,467,0
1612651,801,797,575,1643,-2114,1844,4256,1062,831,-352,624,452,459,0
1615977,803,799,293,893,991,400,5231,1161,490,-331,646,467,483,0
1619332,804,801,143,312,4488,-72,5019,1277,1240,-324,38,475,514,0
1622651,806,803,68,200,10504,-823,3814,1402,-171,311,-449,479,520,0
1625981,808,805,293,818,7333,-634,1395,1480,-840,248,349,467,471,0
1629343,809,807,837,1137,971,719,45,1503,311,-85,404,454,470,0
1632673,811,809,612,1287,1064,961,-164,1539,-456,-674,753,450,446,0
1635984,813,809,1643,1643,-1398,1145,-1033,1520,-686,936,258,395,459,0
1639340,815,810,2000,1100,-7246,914,-2752,1426,-455,-139,-329,376,504,0
1642676,815,812,3237,0,-9332,-981,-2997,1343,1831,504,1243,326,556,0
1645987,816,813,2843,68,1370,-4178,-2191,1256,1465,-187,567,363,559,0
1649340,818,814,1268,800,7439,-6038,-911,1157,-1088,174,199,447,536,0
1652676,820,815,1006,2075,5613,-6707,-109,1095,-1285,635,224,461,484,0
1655990,822,817,256,1962,-2524,-3525,-982,991,-608,326,-301,485,474,0
1659346,824,819,462,2243,-5777,-1330,-45,881,827,-485,-526,490,475,0
1662676,826,821,12,2281,-3559,-3001,839,775,-980,1629,288,498,457,0
1665994,828,823,1081,1475,-8756,-3340,1318,677,-336,985,392,425,484,0
1669342,829,825,1400,1062,-9739,788,2141,635,851,205,847,424,506,0
1672677,830,827,1381,387,-4630,1665,3519,675,1224,-157,266,441,542,0
1675997,832,829,556,368,489,1861,4436,777,1274,-138,512,469,527,0
1679341,834,831,68,406,9669,1527,3345,875,412,-161,-157,495,525,0
1682677,836,833,275,612,14843,2192,2134,964,-1843,-257,-372,484,514,0
1686000,838,835,0,818,6342,286,970,1025,326,145,89,489,487,0
1689341,840,837,68,912,6112,57,-456,1063,-568,-53,148,479,482,0
1692677,842,839,762,575,5399,-721,-1312,1074,-542,-245,721,442,500,0
1696003,844,840,818,1250,2777,-2399,-372,1098,-719,558,227,439,496,0
1699342,846,842,912,556,-2477,-1889,-1161,1082,-337,1145,169,434,517,0
1702677,847,843,968,1025,-4511,-134,-2029,1015,191,-649,-135,431,492,0
1706007,848,845,1081,143,-4399,301,-1119,953,39,-276,-67,441,539,0
1709363,850,847,1100,650,-4850,324,-933,859,969,359,266,440,512,0
1712699,852,848,1400,1325,-1118,2233,-326,753,129,-370,273,424,492,0
1716009,854,849,743,1831,-870,1460,245,619,-352,-472,-496,443,465,0
1719367,856,851,650,1681,-1163,-344,251,494,-1159,96,-254,448,473,0
1722702,858,853,425,1887,-7897,2432,751,354,-648,-107,332,460,462,0
1726013,859,855,1643,1512,-9837,3861,2616,278,610,327,664,411,466,0
1729367,860,857,1531,725,-4815,2440,3992,284,875,60,893,417,508,0
1732703,862,859,1268,593,1452,1721,5519,413,1082,25,479,431,515,0
1736017,864,861,875,518,10927,1945,3607,524,521,71,87,436,503,0
1739367,866,863,575,575,14712,2249,2459,606,-1519,302,-148,452,500,0
1742703,868,865,612,1550,5418,1959,2187,707,-1127,205,-492,450,448,0
1746019,870,867,0,1831,-3651,1907,94,796,-432,-492,824,483,433,0
1749367,872,867,743,1906,-3076,737,-955,860,170,387,1035,427,445,0
1752703,873,869,2168,1062,-2581,3,-1837,871,-77,-205,433,367,490,0
1756023,874,871,2243,162,-3101,1642,-1931,839,-63,368,-45,379,538,0
1759367,876,873,2243,50,-2459,2929,-2037,779,-681,462,-186,379,544,0
1762703,878,875,2337,218,-4456,-1082,-1048,776,1004,-442,705,358,519,0
1766025,878,877,2393,537,-2544,-9383,-166,773,1725,414,702,387,502,0
1769368,880,879,1475,1550,3950,-9603,-1357,704,415,1003,109,436,448,0
1772704,882,881,725,1362,9786,-4485,642,683,-763,377,87,476,458,0
1776029,884,883,293,1418,6622,-3294,2426,692,-141,313,-167,483,439,0
1779368,886,884,256,2262,6799,-7762,2708,666,-1128,55,-490,485,410,0
1782704,888,885,500,1981,-1427,-6278,2133,595,-572,656,414,472,441,0
1786032,890,887,575,837,-4311,-291,3034,585,118,-818,205,452,486,0
1789390,892,889,650,425,-3988,-1202,3520,628,-323,52,-50,448,508,0
1792704,894,891,631,425,-5548,179,4431,736,1300,-69,-188,449,508,0
1796035,895,893,1418,350,4165,1504,3899,872,752,-483,350,423,496,0
1799394,896,895,818,950,7858,53,3248,1015,-229,-103,-47,455,464,0
1802728,898,897,406,931,6506,-1410,3231,1127,-287,-107,-66,477,465,0
1806038,900,899,406,1212,3181,-877,970,1194,-803,-519,6,461,434,0
1809393,902,900,593,1437,-1507,-1441,245,1265,339,-6,832,451,438,0
1812727,904,901,893,1006,-1203,-2561,-313,1290,83,459,625,435,477,0
1816041,906,903,1175,556,-344,-3050,258,1328,-591,1004,-189,420,501,0
1819394,908,905,1306,0,-4254,172,196,1344,22,-28,159,413,537,0
1822728,909,907,1118,293,-4575,855,-46,1335,-669,-2048,-274,423,499,0
1826045,910,909,1756,518,-8427,-1778,244,1335,597,1305,29,405,487,0
1829394,912,911,1812,931,-6530,430,329,1321,1198,342,62,402,465,0
1832728,914,913,1737,1062,-1867,3709,12,1240,870,-273,768,406,458,0
1836048,916,915,1006,1343,3790,418,634,1135,-659,-130,590,429,427,0
1839395,918,916,87,1287,3407,-2465,-405,950,-282,241,-234,478,446,0
1842729,920,917,425,1212,16,1541,-590,819,-230,-234,11,460,466,0
1846051,921,919,1156,1737,-2479,4802,923,771,138,-825,186,453,438,0
1849395,922,921,1250,762,-3110,4037,2458,779,640,-71,289,432,474,0
1852728,924,923,1100,800,-1163,4207,3607,889,274,424,141,440,472,0
1856055,926,925,1212,312,6154,6299,3838,1039,-132,-151,-146,418,482,0
1859395,928,927,725,593,9171,5702,2694,1180,-115,-423,276,444,467,0
1862736,930,929,518,1062,7408,3750,1609,1291,-978,-356,-106,455,442,0
1866057,932,929,162,1437,635,3582,329,1365,-982,-199,444,458,438,0
1869417,934,930,125,1643,-4233,2318,-343,1387,-154,-228,771,460,443,0
1872729,935,932,1512,1343,-5163,1354,-1037,1360,55,-680,662,402,459,0
1876061,936,934,1925,631,-2483,1778,-2765,1316,-88,96,151,380,481,0
1879420,938,936,2206,968,-966,2670,-1101,1261,626,346,224,381,479,0
1882753,940,938,1962,0,1354,3120,-1073,1152,-992,437,137,378,519,0
1886064,941,940,2375,518,1677,-3461,-503,1052,-264,-673,980,388,487,0
1889420,942,942,1475,875,-1264,-8858,-1164,949,599,-109,-152,436,468,0
1892763,944,943,893,1343,722,-9032,-1422,809,-53,-187,-221,467,459,0
1896068,946,944,12,1268,135,-7783,984,730,472,-684,347,498,463,0
1899420,948,945,0,2131,1597,-9790,2240,662,-280,55,-228,532,433,0
1902756,950,947,0,2262,1069,-12789,2559,620,-1022,2047,-302,503,426,0
1906070,952,949,575,1268,-9326,-5483,1311,559,210,615,32,452,463,0
1909421,954,951,893,350,-6360,-2368,1081,492,-454,-397,281,435,512,0
1912762,956,953,1287,668,-5895,-2544,1920,522,-311,-860,13,414,495,0
1916074,957,955,1775,0,-4223,-488,2188,582,2047,446,609,388,517,0
1919421,958,957,1587,106,5732,719,2471,669,-709,223,433,414,509,0
1922763,960,959,875,893,8448,365,2200,730,-803,-317,-151,452,467,0
1926077,962,960,556,1718,6278,869,1581,773,-50,-648,170,453,439,0
1929421,964,961,237,1868,5838,-221,266,783,-1294,-32,-363,470,431,0
1932762,966,963,425,1343,-591,-870,-706,753,117,-518,499,460,459,0
1936080,968,965,368,631,-524,-2711,-636,723,395,667,638,447,481,0
1939428,970,967,1456,256,2192,-3490,-354,712,-521,-786,213,405,517,0
1942763,971,969,1550,706,852,-2248,98,695,184,295,498,400,477,0
1946083,972,971,1306,256,-1057,-511,-48,706,-518,-298,-1006,429,501,0
1949421,974,973,2093,856,-4041,-294,419,738,649,1083,62,387,469,0
1952763,976,975,1137,968,-2275,2049,369,720,1111,458,364,422,447,0
1956086,978,976,743,2056,4171,3856,825,669,-953,-528,578,443,421,0
1959443,980,977,0,1943,1301,2656,922,586,-933,23,296,490,427,0
1962763,982,979,518,1362,-3980,5042,-537,449,-6,57,266,455,458,0
1966090,983,981,931,1362,1088,7284,847,391,-592,270,-241,449,442,0
1969452,984,983,1250,1137,-4452,6030,1838,398,-718,-176,-510,448,470,0
1972763,986,985,1268,612,-8832,6400,3388,494,2047,-1029,300,431,482,0
1976093,988,987,1737,0,7109,5707,3299,608,-206,213,171,390,507,0
1979446,990,989,1456,293,7581,5445,2940,732,144,113,215,405,483,0
1982764,992,990,818,1137,7093,5010,2767,905,-527,-250,597,439,454,0
1986096,994,991,275,1100,2504,4440,1255,978,-914,-432,328,468,456,0
1989447,995,993,200,2393,-3166,3794,411,1025,-859,-789,456,472,387,0
1992789,996,995,912,1531,-8752,3349,-563,1023,642,420,431,450,433,0
1996099,998,997,1381,912,-5482,4161,-2226,990,1149,354,496,409,450,0
1999447,1000,999,2018,106,429,3548,-2130,968,-134,503,396,375,493,0
2002789,1002,1001,1700,125,1826,3517,548,954,-196,-1114,847,392,492,0
2006102,1003,1002,2093,1231,4033,785,328,894,-552,-559,329,387,465,0
2009448,1004,1003,2000,1737,-962,-2718,276,823,263,-319,2,408,438,0
2012790,1006,1005,1043,1193,-8030,-8240,-725,759,866,277,490,443,451,0
2016105,1008,1007,781,818,809,-9077,-140,721,24,-543,-44,457,471,0
2019448,1010,1009,481,556,1412,-10781,737,684,-275,-512,350,473,485,0
2022790,1012,1011,331,575,3265,-14585,1746,670,218,-522,-38,481,484,0
2026109,1014,1013,0,518,5576,-16603,1906,653,-1115,891,-712,495,471,0
2029448,1016,1015,275,481,-1690,-10996,1411,628,-424,341,106,468,473,0
2032790,1018,1017,143,0,-3541,-5711,551,596,461,-331,413,475,510,0
2036112,1020,1018,387,0,-2831,-6125,255,595,893,-208,-219,446,509,0
2039470,1020,1020,1700,106,3069,-5277,1038,650,-149,222,113,408,493,0
2042790,1021,1021,1606,1062,4271,-2705,470,685,63,-305,571,429,458,0
2046116,1023,1023,912,1381,2665,-2133,440,709,1,-138,270,450,425,0
2049473,1025,1025,612,1625,1878,-1661,-646,686,-445,-492,636,466,412,0
2052791,1027,1027,312,1493,716,-2956,-1517,640,-51,281,322,482,419,0
2056118,1029,1029,293,1493,-2009,-4288,-1798,571,-111,78,474,467,435,0
2059473,1031,1030,950,0,-2880,-5771,-2005,497,-44,706,793,432,505,0
2062791,1033,1031,1025,237,-1469,-6617,-1614,421,-709,818,-209,428,502,0
2066122,1035,1032,1756,912,-3635,-4932,-1068,358,947,780,385,421,482,0
2069474,1035,1034,1981,818,-3290,-2844,-693,353,725,1301,13,409,487,0
2072791,1037,1036,1100,1043,-1983,1219,29,328,984,-172,385,440,459,0
2076125,1039,1038,1175,2187,2837,1199,395,283,-799,903,612,436,398,0
2079474,1041,1040,856,1943,326,3069,788,202,-281,963,479,453,411,0
2082815,1043,1040,406,2318,-1500,8578,625,118,273,591,355,477,423,0
2086128,1045,1041,462,2412,1022,10679,1298,67,-684,1126,-40,458,418,0
2089475,1047,1043,50,2018,-915,12021,871,7,-194,794,60,480,439,0
2092818,1049,1045,425,1287,-4974,13947,1886,27,-275,-445,-83,460,478,0
2096131,1049,1047,1437,462,-7159,16143,3155,113,1827,-1154,3,422,506,0
2099474,1051,1049,1831,368,1426,15524,4251,263,-817,-346,-219,401,511,0
2102819,1053,1051,1737,687,5796,12814,1605,383,-225,-427,9,406,494,0
2106135,1055,1053,968,1250,7599,11186,1993,512,143,20,-150,431,464,0
2109475,1057,1053,612,1456,9393,10431,1745,549,-1678,-472,229,450,469,0
2112819,1058,1054,1287,2000,300,9468,1111,574,-876,-533,926,430,456,0
2116138,1059,1056,612,2112,-3024,8736,-435,552,1269,1337,904,466,434,0
2119496,1061,1058,2093,1700,-723,9913,-1754,519,1339,345,392,387,456,0
2122820,1063,1060,2956,1418,5883,9049,-232,517,461,-239,1197,341,471,0
2126141,1065,1062,2525,1681,8464,7288,91,496,-390,-2004,875,380,457,0
2129498,1065,1063,2468,2431,7524,2900,-54,440,-2048,-1486,-870,399,433,0
2132821,1067,1064,1100,1962,-4249,-6825,-1425,336,147,-1452,-50,456,458,0
2136144,1069,1066,593,1681,-4716,-12164,-868,265,624,-506,290,483,473,0
2139498,1071,1068,0,1418,144,-14252,416,261,154,-613,-53,517,487,0
2142820,1073,1070,218,875,4415,-17604,-170,247,-781,-556,-201,503,516,0
2146147,1075,1072,0,481,757,-20328,-383,203,-625,-325,-805,513,521,0
2149498,1077,1074,0,50,-4168,-19804,-792,163,-173,498,-569,518,544,0
2152820,1079,1076,987,631,-2363,-13930,-1108,115,1307,634,-318,446,513,0
2156150,1081,1078,1306,1025,2765,-12426,-170,130,-1316,-1007,342,429,492,0
2159498,1083,1080,1025,818,-2211,-12458,-850,151,67,-352,-544,428,487,0
2162820,1085,1082,275,781,-1349,-10570,-1033,175,657,56,199,468,489,0
2166153,1087,1084,950,875,2206,-10582,-940,208,-794,75,380,432,468,0
2169499,1087,1086,1231,575,-1760,-11206,-821,233,297,221,106,433,484,0
2172828,1088,1088,987,406,-1993,-12592,-1768,211,737,17,263,462,493,0
2176157,1089,1089,875,743,1918,-13645,-2175,165,406,-147,330,468,491,0
2179499,1091,1091,575,125,4347,-14149,-2583,83,-92,-369,-15,484,508,0
2182826,1093,1092,1156,725,5215,-15686,-1761,16,-1370,492,-166,453,492,0
2186160,1095,1093,931,987,172,-15509,-1128,-43,-1268,163,-383,449,478,0
2189499,1097,1095,1287,1100,-7249,-13614,-2292,-135,2047,1283,103,446,488,0
2192829,1099,1097,2168,1212,747,-4814,-1527,-223,-445,2047,2047,383,466,0
2196163,1099,1099,2637,2075,1080,3163,-1573,-299,-104,525,2047,390,420,0
2199499,1100,1101,2262,1643,220,8927,-1328,-400,-116,695,304,426,443,0
2202832,1102,1101,2337,3256,-6,11716,-1564,-547,-413,1903,-9,422,389,0
2206166,1104,1103,1625,2918,-1380,15712,-2609,-761,-635,99,-392,444,391,0
2209524,1106,1105,912,3106,-1859,16893,-2644,-894,11,-237,121,482,381,0
2212835,1108,1105,781,1943,-3020,16849,-1651,-1008,-289,317,-491,489,475,0
2216170,1110,1106,1343,2187,-6188,17494,-1312,-1104,-251,27,-256,459,462,0
2219527,1111,1108,1812,1606,-9259,19310,758,-1115,1892,-967,-459,434,493,0
2222838,1112,1110,1793,1700,-2051,19123,2977,-1008,-397,312,-516,451,488,0
2226173,1114,1112,1343,1550,-1238,19655,495,-938,512,-65,-49,459,480,0
2229527,1116,1114,893,1381,-737,17580,-166,-936,592,-396,-116,483,489,0
2232842,1118,1116,1100,725,1097,14853,-96,-942,-687,-80,517,472,524,0
2236176,1120,1118,893,350,935,13923,-453,-954,273,459,589,467,528,0
2239532,1122,1120,1531,987,3158,13411,-2066,-974,-351,556,854,433,494,0
2242845,1124,1122,1587,1118,2317,12764,-1850,-1005,-1110,988,149,430,487,0
2246179,1126,1124,1343,500,5,13704,-1008,-1049,-787,2047,-47,427,504,0
2249539,1128,1126,2018,1062,-8190,18102,-2568,-1124,2047,68,1570,407,490,0
2252848,1128,1128,3200,181,4994,10401,-785,-1137,1116,-2048,-466,360,521,0
2256182,1130,1129,3518,1981,7073,679,-1253,-1151,-742,-1343,334,343,457,0
2259533,1132,1130,1043,2525,3790,-9585,-2612,-1198,-893,267,-54,475,428,0
2262851,1134,1132,425,1475,-763,-8887,948,-1163,1253,288,11,492,468,0
2266186,1136,1134,125,1043,1198,-8192,1871,-1078,-354,-71,-203,508,491,0
2269534,1138,1136,425,218,852,-9104,287,-1037,-801,-363,-1012,492,535,0
2272854,1139,1138,1718,68,-1476,-8613,-2793,-1095,561,-366,440,439,543,0
2276190,1140,1140,2056,181,2652,-7688,-2173,-1137,-403,123,93,421,521,0
2279539,1142,1142,1868,1400,620,-6352,-579,-1100,294,-612,-154,447,472,0
2282858,1144,1144,1362,312,123,-5363,-659,-1053,135,-413,-797,458,514,0
2286192,1146,1146,1100,875,579,-4717,-460,-986,-725,392,-33,456,468,0
2289534,1148,1148,875,1193,-2320,-5451,-264,-939,994,22,82,468,451,0
2292861,1150,1149,481,1193,-1186,-5883,-1588,-954,1029,-201,-101,489,467,0
2296195,1152,1150,0,293,4453,-6319,-1703,-935,242,60,157,510,515,0
2299535,1154,1150,687,650,7320,-7557,-1276,-928,308,-594,239,462,528,0
2302865,1156,1151,387,1212,7160,-8764,-1877,-937,-1463,-216,427,478,514,0
2306198,1158,1152,575,1737,3491,-9381,-382,-907,-1089,209,-165,452,486,0
2309535,1159,1153,518,1418,-3634,-7313,-1220,-897,1349,111,28,471,519,0
2312868,1161,1154,1175,1437,-1188,-5058,-1868,-874,54,474,-285,452,534,0
2316202,1162,1155,1062,1775,1417,-5723,-1392,-834,-418,94,-686,458,532,0
2319560,1164,1156,800,1718,-2309,-8091,-1414,-827,519,-475,-599,472,551,0
2322870,1166,1158,275,968,1620,-9383,-523,-802,-69,-357,-450,484,575,0
2326205,1168,1161,331,650,-277,-9480,-570,-844,86,-353,218,481,592,0
2329560,1170,1163,500,462,-563,-9535,-801,-962,259,81,-38,472,586,0
2332874,1172,1165,706,387,1565,-7711,-662,-998,773,-76,-35,461,590,0
2336208,1174,1167,275,387,7887,-6689,-645,-1013,-1879,-941,-1246,468,574,0
2339560,1176,1169,687,968,-1036,-5341,-1782,-1066,-424,203,349,446,543,0
2342877,1178,1171,1231,1231,-3354,-4775,-2195,-1120,5,-77,40,417,529,0
2346211,1178,1173,931,837,-2949,-4543,-1697,-1109,246,-375,166,449,534,0
2349560,1179,1175,1268,1662,-3672,-4658,-1210,-1089,-867,508,496,447,490,0
2352880,1180,1177,1137,950,-7736,-6309,-1266,-1097,76,640,1357,470,528,0
2356214,1182,1179,1118,762,-7560,-8838,-1471,-1062,439,803,1705,455,522,0
2359560,1184,1181,1250,875,-5743,-10371,-2437,-1114,1285,909,2047,448,516,0
2362883,1186,1183,1437,2300,3574,627,700,-1053,-2048,1315,14,438,440,0
2366218,1188,1185,931,2056,-4110,10971,411,-959,-223,968,500,449,453,0
2369560,1190,1185,1568,2712,-8051,15539,-297,-997,664,-1301,613,415,434,0
2372887,1191,1186,2487,2431,-883,14951,935,-1027,-853,-845,-760,382,465,0
2376221,1192,1188,2937,1831,-5802,15924,310,-1026,-66,88,53,374,497,0
2379561,1194,1190,3293,1568,-5956,17337,326,-929,2047,-533,498,355,511,0
2382890,1194,1192,2168,818,4933,13119,346,-850,2047,-1177,1262,431,535,0
2386224,1196,1194,0,706,18705,5244,-3227,-933,-1500,-732,-64,858,541,0
2389561,1198,1196,0,968,22490,337,-5518,-1084,-1139,-300,-1859,862,527,0
2392893,1199,1198,2262,1606,9870,581,-5022,-1227,13,-750,106,442,493,0
2396228,1200,1200,1400,1006,13752,1379,-4615,-1363,-1882,-154,421,488,509,0
2399585,1201,1202,1493,1081,8560,20,-4642,-1458,727,-519,346,499,505,0
2402897,1203,1204,1643,1475,9512,-604,-4562,-1548,-1590,-85,103,507,484,0
2406230,1205,1206,1493,856,2574,725,-4065,-1635,-581,-342,-144,499,501,0
2409590,1207,1208,1362,537,-2941,1222,-4691,-1723,596,333,251,490,518,0
2412900,1209,1210,1006,12,-2650,1540,-3690,-1826,552,265,250,509,546,0
2416234,1211,1212,500,256,-501,1408,-3343,-1893,-26,-404,434,536,533,0
2419589,1214,1214,181,856,1128,-737,-2799,-1922,1289,309,372,521,485,0
2422903,1216,1215,931,1437,3537,-1769,-3397,-1984,581,608,431,497,470,0
2426237,1218,1216,1325,1306,11065,-2229,-2210,-2009,-1025,674,61,460,477,0
2429595,1219,1217,968,2506,4040,-3745,-1878,-2052,-912,-278,-146,479,429,0
2432906,1220,1219,1118,2318,-8818,-8149,-707,-2056,599,226,-90,487,439,0
2436240,1222,1221,987,1400,-5264,-10247,-1211,-2069,550,302,-282,510,488,0
2439598,1223,1223,1212,331,-5276,-8321,-3167,-2147,675,-321,-319,498,545,0
2442909,1224,1225,1100,0,-1623,-8709,-4523,-2268,-1141,224,-297,504,554,0
2446243,1225,1227,931,0,-5851,-9428,-3864,-2333,1116,-33,-117,529,551,0
2449598,1226,1229,1681,1250,-4316,-7667,-3764,-2382,253,-128,198,505,480,0
2452912,1227,1231,1793,1081,-340,-6316,-3455,-2437,-1710,-384,-553,515,489,0
2456247,1229,1233,1962,1231,-9138,-6400,-3243,-2501,414,506,69,506,465,0
2459599,1232,1235,987,950,-10006,-5378,-3148,-2559,-196,-67,15,526,480,0
2462915,1234,1237,1456,106,-7611,-4874,-2104,-2579,6,447,275,501,525,0
2466250,1236,1239,556,500,-8472,-4661,-2726,-2588,628,208,631,549,520,0
2469599,1238,1241,387,12,-6496,-5955,-2482,-2688,79,-201,680,542,514,0
2472918,1240,1243,537,837,-4730,-7606,-2976,-2794,-68,54,401,534,486,0
2476253,1242,1243,762,1400,-5253,-8827,-3229,-2885,-305,178,305,506,456,0
2479599,1244,1244,893,1306,-4069,-10041,-2529,-2993,-138,606,-1316,499,477,0
2482922,1246,1246,1493,1775,-3623,-5987,-2735,-3089,446,2047,1250,467,452,0
2486256,1248,1248,2187,1831,-2663,589,-2597,-3180,7,1928,2047,430,433,0
2489599,1248,1250,2562,2075,-3997,6789,-1347,-3233,1314,191,1380,426,420,0
2492925,1250,1250,2825,2768,-260,10142,2486,-3054,-352,947,-479,412,415,0
2496259,1252,1251,1437,2243,-633,14537,1966,-2820,-15,1102,69,470,443,0
2499600,1254,1253,2093,1925,-1322,15360,2308,-2591,-336,331,-61,451,476,0
2502928,1256,1255,1193,1268,1667,16557,2880,-2357,324,136,331,483,495,0
2506263,1258,1257,1100,406,5036,16860,1074,-2179,1629,-961,-168,488,541,0
2509600,1260,1259,1606,1606,14578,16854,-1848,-2094,-2048,-1097,-740,461,477,0
2512931,1262,1261,2375,1643,3628,13728,-2042,-2030,-284,422,382,420,475,0
2516266,1263,1263,2637,2056,2022,9788,-458,-1898,20,476,412,422,437,0
2519621,1264,1263,2375,3293,-147,10449,-674,-1804,-462,-725,387,436,403,0
2522934,1266,1264,1643,3800,-5580,7316,-607,-1718,-153,42,723,475,374,0
2526270,1268,1266,781,0,-9208,7001,-1541,-1679,726,511,182,505,871,0
2529625,1270,1268,1156,1250,-6064,6179,-1676,-1625,688,708,576,485,512,0
2532938,1272,1270,1512,1193,-426,6528,-2391,-1631,422,-987,1285,466,515,0
2536272,1274,1272,1850,1962,2507,5139,-349,-1583,442,350,796,432,474,0
2539625,1276,1273,1493,2262,742,3748,-2924,-1653,-99,-1455,511,451,458,0
2542941,1278,1274,2375,2543,-4186,-2955,-4581,-1758,826,-1534,-202,404,459,0
2546275,1279,1276,2056,1737,-6887,-10480,-4613,-1803,1300,-315,821,437,486,0
2549625,1280,1278,1400,1606,976,-13504,-5531,-1835,667,-299,-495,472,493,0
2552944,1282,1280,331,1025,5057,-16522,-4826,-1865,439,-663,-189,529,524,0
2556278,1284,1282,181,575,6910,-18758,-4429,-1885,434,46,-464,521,532,0
2559631,1286,1284,912,1212,11903,-18247,-3968,-1901,-1767,348,-1213,498,514,0
2562947,1287,1286,856,1043,-1043,-14790,-4732,-1948,-87,-303,-309,501,507,0
2566282,1289,1288,1831,893,-1507,-14190,-5752,-2029,2047,327,-50,449,515,0
2569625,1291,1290,1643,1306,14367,-13684,-4487,-2104,-1408,153,-543,459,493,0
2572950,1293,1292,1325,1043,7561,-11037,-3939,-2142,-1268,213,-607,460,491,0
2576285,1295,1294,1287,1156,1067,-11541,-4562,-2207,97,-422,-84,462,485,0
2579626,1297,1296,1156,762,-328,-12764,-4878,-2266,-1172,102,120,469,506,0
2582954,1299,1298,612,181,-950,-13188,-3770,-2283,277,92,424,498,537,0
2586288,1301,1300,0,143,-621,-13792,-4183,-2335,739,381,217,529,523,0
2589632,1303,1302,1006,462,2100,-14708,-4755,-2398,133,-120,619,477,522,0
2592957,1305,1304,1062,1100,5821,-16397,-5109,-2476,-78,683,716,458,472,0
2596291,1307,1306,837,575,7447,-16116,-4259,-2567,-1835,2047,-405,454,484,0
2599648,1309,1307,743,2225,-1348,-2242,-2744,-2731,-903,1502,185,459,412,0
2602960,1309,1308,2862,2843,-15504,1652,-3719,-2908,1625,316,860,378,395,0
2606295,1311,1310,2506,1568,-10776,2199,-2660,-3064,42,876,224,381,447,0
2609651,1313,1312,2037,2037,-3178,5256,-1054,-3187,-607,1290,205,406,422,0
2612963,1315,1312,2168,1943,-10325,9912,-842,-3246,708,293,99,399,459,0
2616298,1315,1314,3162,2412,-9216,11031,-400,-3201,390,549,-134,362,418,0
2619652,1316,1316,2881,2131,-6327,11362,604,-3119,774,502,195,393,433,0
2622967,1318,1318,1925,1362,-5153,12875,1210,-3066,-89,-153,50,444,474,0
2626302,1320,1320,1156,781,-7163,13491,1379,-3002,203,1445,-571,485,505,0
2629651,1322,1322,1212,1287,-5777,18755,547,-2966,-22,66,-340,482,478,0
2632970,1324,1324,1212,2018,-4964,19180,-114,-2922,-235,-1177,-245,466,439,0
2636305,1326,1324,1925,1737,-7527,15987,854,-2843,-32,-256,-59,444,470,0
2639652,1328,1325,987,1212,-4120,14106,1152,-2732,-147,-473,220,478,514,0
2642973,1329,1326,968,2168,-3857,11636,451,-2707,539,227,132,495,479,0
2646308,1331,1328,1043,1812,-6047,10078,1586,-2566,738,37,545,491,498,0
2649652,1333,1330,837,1681,-4525,8113,1000,-2391,-47,34,836,486,489,0
2652976,1334,1332,1625,1118,-5067,8375,295,-2238,-397,737,649,460,519,0
2656310,1335,1334,2093,1962,-5078,7224,1444,-2020,-69,2047,-550,451,474,0
2659653,1337,1336,1118,950,-5307,15532,2596,-1788,-539,700,-1309,487,512,0
2662979,1339,1338,1456,1512,-7634,19454,3239,-1549,-203,-1539,-508,469,482,0
2666314,1341,1340,3387,1231,-3192,13158,2619,-1343,615,-1638,-841,366,497,0
2669653,1343,1342,181,237,-2845,1581,-584,-1213,2047,-727,1244,521,534,0
2672982,1343,1344,2600,0,12628,-3964,-2180,-1101,-1141,314,-113,424,579,0
2676317,1345,1346,2712,0,11338,-5462,-1452,-1007,-1511,-260,-352,418,552,0
2679674,1347,1348,1006,0,836,-2104,-607,-903,2047,-419,-408,493,548,0
2682986,1349,1350,1025,0,6437,439,-1793,-816,50,-127,398,492,535,0
2686343,1351,1352,1343,1231,11467,227,-1885,-722,-1063,171,58,475,465,0
2689678,1353,1354,1193,1831,4470,894,-2477,-682,-941,464,45,483,433,0
2692989,1355,1356,1193,1550,1164,2968,-3633,-665,-969,-386,100,467,432,0
2696347,1357,1358,1643,350,-811,2751,-3158,-615,175,460,189,443,496,0
2699678,1359,1360,1006,143,1782,242,-883,-483,607,-346,660,477,507,0
2702992,1361,1362,743,0,3596,-1330,-1597,-400,-349,-43,655,491,541,0
2706350,1363,1364,537,12,3971,-2507,-1667,-366,594,432,417,502,514,0
2709678,1365,1366,425,200,6405,-4374,-1790,-306,117,451,906,492,488,0
2712995,1367,1367,650,1006,7773,-4832,-2156,-290,213,916,112,480,461,0
2716354,1369,1368,443,1531,9669,-1803,-1564,-306,-552,692,-252,491,449,0
2719678,1371,1370,537,1250,4202,3084,-911,-308,-471,-436,-512,470,448,0
2722998,1372,1372,2056,1212,1924,610,-967,-326,574,259,90,421,450,0
2726356,1373,1374,2131,500,3992,-3701,-1479,-391,595,137,-41,417,488,0
2729678,1375,1376,1081,0,9036,-9048,-3193,-529,193,-16,188,457,514,0
2733002,1377,1378,837,0,10941,-10133,-3385,-677,-945,202,-652,470,512,0
2736360,1379,1380,612,143,5802,-8095,-2303,-766,729,-149,102,482,491,0
2739679,1381,1382,856,31,8873,-7868,-2032,-826,348,-452,-171,453,481,0
2743006,1383,1384,650,368,12722,-7930,-2469,-930,-698,-244,-437,464,479,0
2746360,1385,1384,781,1175,7578,-6939,-2678,-1050,-2048,-318,133,457,452,0
2749679,1387,1385,368,2375,-4785,-5972,-3457,-1172,-1109,-324,1067,479,404,0
2753008,1389,1387,1043,2412,-10595,-5903,-3645,-1336,-520,-506,357,443,386,0
2756365,1389,1389,1493,2093,-17106,-6219,-2500,-1445,199,416,1527,435,403,0
2759700,1390,1389,1456,2262,-15411,-8115,-3879,-1575,505,688,1359,453,426,0
2763012,1392,1391,1643,2900,-11980,-9808,-4714,-1768,839,469,1888,443,392,0
2766369,1394,1393,1587,1737,-9179,-10759,-4790,-1999,543,1131,1078,446,454,0
2769701,1396,1395,893,875,-7206,-11693,-3312,-2203,-514,323,-541,467,484,0
2773015,1398,1396,275,1381,-10307,-9189,-2549,-2365,627,457,466,500,473,0
2776369,1400,1397,968,1343,-9739,-2647,-3995,-2471,466,-570,1058,463,491,0
2779704,1402,1398,2393,1812,-1688,-2852,-660,-2424,-190,-145,189,371,466,0
2783019,1402,1400,3387,1793,-996,-3426,415,-2366,768,615,-87,350,467,0
2786382,1404,1402,3800,2056,-2489,-1938,317,-2337,1044,803,512,321,453,0
2789717,1405,1404,3800,1831,3654,881,1792,-2225,350,1776,926,308,449,0
2793021,1406,1406,0,1456,6341,3940,2411,-2090,860,649,503,857,469,0
2796370,1408,1408,0,481,8214,6429,3353,-1908,639,200,355,858,521,0
2799704,1408,1409,0,0,12221,9581,3621,-1682,1025,379,-322,856,548,0
2803025,1410,1411,3800,1137,15187,11311,2634,-1501,321,-431,-1364,325,502,0
2806369,1412,1412,2300,1643,17322,10974,682,-1452,-952,-537,-638,440,475,0
2809704,1414,1414,1850,1100,11587,9694,-770,-1426,723,-397,119,464,504,0
2813027,1416,1416,1456,1325,10308,10759,692,-1352,-317,-242,-24,469,476,0
2816370,1418,1418,1400,1700,9105,9353,1180,-1259,-740,-46,276,472,456,0
2819706,1419,1420,1362,1512,3238,7815,1235,-1153,-540,-808,448,490,466,0
2823030,1422,1422,1606,1212,-1110,7101,1991,-1042,230,370,-42,477,482,0
2826370,1424,1424,1137,762,-1582,7184,1562,-965,615,-141,277,486,506,0
2829705,1426,1426,725,875,4654,6783,1604,-885,204,265,831,492,484,0
2833034,1427,1428,1475,1662,4222,5899,733,-815,119,1096,423,484,458,0
2836392,1429,1428,1025,2431,1938,6336,182,-710,-567,727,569,492,433,0
2839706,1430,1429,1343,2018,-1637,3908,1416,-560,20,-1129,-608,475,455,0
2843037,1431,1431,1531,1868,-8117,2482,2028,-425,1274,-733,35,481,463,0
2846395,1432,1433,2918,1625,-2487,-3148,1929,-301,-1003,-1834,-591,423,476,0
2849727,1434,1435,2356,968,-6161,-10699,595,-205,-740,1037,567,437,495,0
2853041,1436,1437,1437,1175,-10595,-13987,-313,-131,-105,-635,323,486,484,0
2856395,1438,1439,687,593,-8835,-15508,-731,-46,445,652,-510,526,515,0
2859731,1440,1441,368,125,-5086,-11547,367,78,-1155,-327,-934,527,524,0
2863043,1442,1443,931,275,-6199,-9895,1,157,-7,-1245,-256,497,516,0
2866396,1444,1445,1531,1175,-9107,-10134,202,284,417,177,-89,465,468,0
2869737,1446,1446,1587,1643,-4203,-7773,217,438,-1322,-345,-549,462,459,0
2873046,1448,1447,612,1212,-5771,-7924,414,601,130,-536,-63,498,482,0
2876395,1450,1449,1250,1156,-10953,-7875,52,706,-708,-1261,-493,464,485,0
2879732,1452,1451,1081,912,-9789,-8199,-249,778,149,176,84,473,498,0
2883049,1454,1453,143,518,-8354,-8861,-635,883,587,-11,299,507,503,0
2886396,1456,1455,125,931,-5360,-10231,-521,887,15,384,285,524,497,0
2889732,1458,1457,275,443,-5582,-11132,-443,860,195,-405,476,500,507,0
2893053,1460,1459,462,1493,-4317,-13143,-650,830,-310,866,759,490,451,0
2896396,1462,1461,931,987,-5141,-13634,-901,746,1356,870,-85,465,478,0
2899738,1463,1463,1943,875,-181,-8159,240,678,1049,1393,756,427,484,0
2903056,1464,1465,2225,1287,3129,-4003,1225,612,105,186,-5,412,446,0
2906397,1466,1465,2281,3031,4346,-2799,2551,578,-295,706,896,409,385,0
2909732,1468,1467,2337,1868,1332,654,3505,605,387,723,525,390,431,0
2913060,1470,1469,2731,1325,2480,6723,4609,728,621,-313,510,385,460,0
2916424,1470,1471,2562,781,8991,8828,6449,954,-237,-119,-530,410,489,0
2919732,1472,1473,1812,0,6803,11972,5221,1095,268,444,-275,434,520,0
2923062,1474,1475,1062,162,9783,13247,4966,1214,44,-243,-117,474,506,0
2926418,1476,1477,1025,443,11501,15331,3449,1283,-1368,-666,-508,476,491,0
2929755,1478,1479,1193,612,7186,17057,2763,1307,-150,-965,-505,451,466,0
2933065,1480,1479,1662,1793,4265,16185,3560,1369,264,-1251,-791,426,435,0
2936422,1482,1481,1362,1287,4836,13958,3015,1413,-402,-1925,-166,442,462,0
2939756,1483,1483,1456,1081,6038,11327,4050,1517,-55,-109,416,453,473,0
2943070,1484,1485,1100,556,6622,9597,4168,1642,-44,564,520,472,485,0
2946428,1486,1487,1662,1343,4431,9197,3826,1717,-331,-64,350,458,459,0
2949756,1488,1489,875,443,4259,8216,3417,1760,541,878,533,484,491,0
2953072,1490,1491,1681,1381,5510,8932,1719,1754,-939,-726,1008,441,441,0
2956422,1492,1491,2262,2975,1650,6585,1303,1776,-580,98,812,410,388,0
2959756,1494,1493,2525,2168,-2791,3483,4147,1915,933,-1672,1440,380,415,0
2963075,1495,1495,1700,1475,5741,-6136,5798,2119,-735,-1956,275,440,452,0
2966422,1496,1497,1718,1531,6644,-13883,3867,2229,-1811,-428,-842,455,449,0
2969757,1498,1498,1681,1100,-7372,-19996,2080,2294,-202,-200,-551,441,472,0
2973078,1500,1499,1212,1100,-8909,-20578,266,2296,353,-624,158,466,488,0
2976422,1502,1500,631,1493,-6436,-22334,66,2291,682,614,-121,497,483,0
2979757,1504,1502,256,481,-4426,-18727,294,2287,-304,172,-684,501,521,0
2983081,1506,1504,1043,1025,-2789,-13183,-552,2268,64,-17,804,459,492,0
2986423,1508,1506,912,575,-3432,-10726,-1210,2238,-499,466,278,466,516,0
2989756,1510,1508,800,968,-1187,-6434,-1773,2203,-2048,-429,-949,456,479,0
2993085,1511,1510,1493,1475,-7298,-4584,-968,2189,-713,-16,611,451,452,0
2996423,1512,1512,1850,1456,-11937,-2840,-2258,2132,356,308,413,432,453,0
2999757,1514,1514,1325,1118,-9862,-2961,-3141,2054,833,130,209,460,471,0
3003088,1516,1516,1850,331,-3943,-4936,-2815,1994,197,369,269,416,513,0
3006445,1518,1518,1681,218,459,-7083,-3471,1878,-35,511,241,425,503,0
3009757,1520,1519,1193,518,-155,-8440,-3438,1733,-1021,-160,-16,451,503,0
3013091,1522,1520,706,1325,-3461,-9460,-3104,1556,-422,-481,-318,477,476,0
3016447,1524,1521,706,1850,-6576,-10505,-4352,1310,848,555,-149,477,464,0
3019781,1526,1522,687,1043,-2615,-6028,-3617,1053,687,305,192,462,507,0
3023094,1528,1524,1118,1643,-718,-4139,-2638,769,595,1217,293,455,475,0
3026448,1528,1526,2468,2487,1550,-4441,-2347,533,-864,1032,971,399,430,0
3029785,1529,1528,2393,1887,-5643,1636,-1666,326,456,1725,789,403,446,0
3033098,1531,1530,2787,2393,-2837,5894,-720,195,227,496,355,382,435,0
3036450,1533,1530,2393,2956,2075,8010,472,124,612,1018,-93,403,421,0
3039790,1534,1532,2112,1775,617,11354,-267,4,162,475,359,418,468,0
3043102,1535,1534,1381,1418,1956,12256,-66,-91,343,-159,285,473,487,0
3046449,1536,1536,1287,1231,4123,13222,-352,-229,8,705,-42,494,497,0
3049790,1538,1538,1325,1212,2568,17612,-536,-376,-899,-386,-855,476,482,0
3053105,1540,1540,1550,2000,-221,18703,-2448,-572,-197,-1090,-772,464,440,0
3056449,1542,1542,1587,1362,-4012,13515,-1049,-711,334,128,180,462,474,0
3059791,1544,1544,1756,368,28,12345,-181,-771,300,-1040,97,453,527,0
3063107,1546,1545,1381,875,1009,11072,401,-799,-274,221,7,457,516,0
3066450,1548,1546,800,1250,301,9776,83,-926,-210,-27,165,488,496,0
3069791,1550,1547,818,1718,534,8425,-209,-1114,289,266,693,487,487,0
3073110,1552,1549,893,2018,-302,8284,-996,-1266,113,339,1006,483,471,0
3076450,1554,1551,1118,2093,-1372,7753,-312,-1340,962,1172,835,471,467,0
3079792,1556,1553,1231,1193,1427,9776,214,-1342,191,773,-882,449,499,0
3083114,1557,1555,1175,987,1368,16465,1266,-1304,791,-98,-513,468,510,0
3086471,1558,1557,2937,1156,1766,14648,-805,-1339,-637,-2048,-349,390,501,0
3089792,1560,1559,2881,575,3693,665,-1822,-1378,925,-501,1446,377,516,0
3093117,1562,1561,2300,312,10417,-7117,-3424,-1448,-1,322,487,408,530,0
3096475,1564,1563,950,256,12755,-7398,-3180,-1492,-800,-35,-22,480,533,0
3099792,1566,1565,425,0,9628,-4730,-825,-1487,628,-325,-627,492,540,0
3103120,1568,1567,837,106,10839,-3604,-1722,-1470,-711,-485,-71,486,525,0
3106475,1570,1569,668,575,9918,-4947,-3536,-1483,-124,-710,169,479,500,0
3109792,1572,1571,462,1212,7054,-4615,-4173,-1525,-223,-224,372,474,450,0
3113123,1572,1573,1456,2112,5633,-2140,-3952,-1540,110,-361,-429,453,434,0
3116475,1573,1573,2037,1287,4388,-1709,-3787,-1551,614,-729,-315,438,478,0
3119816,1575,1574,1343,743,4500,-1674,-2521,-1533,810,399,388,475,523,0
3123126,1577,1575,781,725,6352,-2696,-2251,-1467,36,-57,201,489,524,0
3126476,1579,1576,0,706,5306,-3802,-1738,-1408,255,28,264,537,541,0
3129817,1581,1577,575,1175,6923,-4792,-1689,-1379,329,-464,216,500,532,0
3133130,1583,1578,1118,1718,7515,-5993,-2429,-1381,-257,-542,257,471,519,0
3136476,1585,1579,1325,3031,8048,-7650,-2443,-1406,-2048,-720,150,460,465,0
3139818,1587,1581,912,3312,-1502,-8893,-1944,-1444,-1259,-971,-135,466,434,0
3143133,1589,1583,462,1568,-8453,-11682,-1956,-1520,-2048,395,215,490,527,0
3146476,1591,1585,443,0,-16138,-12921,-3472,-1620,-542,140,372,491,868,0
3149817,1593,1585,406,0,-24774,-9074,-4706,-1765,1883,1524,569,477,867,0
3153136,1595,1587,1006,3800,-16299,-7822,-5716,-1933,169,-48,-1662,461,404,0
3156476,1595,1589,2131,2431,-20369,-8193,-3878,-2037,854,907,827,417,497,0
3159818,1597,1591,1137,1306,-16577,-2965,-6464,-2163,1303,-1078,307,454,541,0
3163139,1599,1593,575,1400,-10785,-1749,-4343,-2265,-154,-639,404,484,536,0
3166476,1601,1595,462,1231,-4202,-3915,-5828,-2442,521,0,736,490,545,0
3169818,1603,1597,631,1550,1345,-3608,-5361,-2622,-1093,770,186,465,512,0
3173142,1605,1599,2281,1550,3152,229,-3902,-2747,522,780,260,377,512,0
3176498,1607,1601,1325,1212,3308,3055,-3743,-2857,1101,816,1174,428,530,0
3179825,1607,1603,2131,1550,10206,1735,-2463,-2903,-773,605,652,417,512,0
3183146,1609,1605,1850,331,7223,908,-2437,-2969,-499,209,1103,416,561,0
3186501,1611,1607,1231,987,-6,-1154,-2247,-3046,-214,259,519,449,526,0
3189819,1613,1609,1081,1250,-3316,-1794,-2150,-3153,1489,341,332,457,512,0
3193149,1615,1611,68,950,2618,-330,-2912,-3219,-2,663,-44,495,512,0
3196502,1617,1613,1062,1343,13831,1617,-1044,-3194,-142,-896,-117,458,507,0
3199819,1619,1615,912,1662,10751,-2285,-2423,-3163,-1353,-221,-289,450,474,0
3203152,1621,1616,1212,2393,7293,-4186,-2071,-3128,-1091,705,32,450,467,0
3206502,1621,1617,1362,2487,-351,2032,-2029,-3166,-463,285,184,458,462,0
3209850,1622,1618,2093,2487,-4182,2013,-2102,-3178,35,1549,248,435,478,0
3213155,1624,1620,2281,2000,-3160,1915,-1374,-3110,796,364,-144,409,488,0
3216503,1626,1622,1850,1531,-1343,6246,-769,-3004,-119,107,-314,432,513,0
3219847,1628,1624,631,856,-1622,8159,-2309,-2953,-148,-81,-166,481,533,0
3223159,1630,1626,237,2112,-1661,10669,-4125,-2963,-910,-1207,-794,502,466,0
3226509,1632,1628,912,1775,-5128,6971,-4552,-3027,503,-212,396,466,484,0
3229848,1634,1630,650,893,-1745,4995,-3071,-3052,-473,-241,-204,464,515,0
3233162,1636,1632,1437,425,279,5431,-3574,-3110,-86,603,267,438,540,0
3236503,1636,1634,1662,593,-2927,4630,-3166,-3156,458,-81,879,442,531,0
3239848,1637,1636,1212,837,-2293,4490,-2036,-3144,15,275,276,466,502,0
3243166,1639,1638,1156,1137,-1636,4356,-1933,-3128,-1104,748,517,469,486,0
3246503,1641,1640,931,1475,-6197,4069,-1044,-3100,-568,683,551,481,468,0
3249849,1643,1642,650,1400,-10230,4200,-1909,-3098,1621,1217,448,496,472,0
3253169,1645,1642,687,2112,-3044,5647,-1377,-3033,554,-2,844,478,450,0
3256532,1647,1643,1643,3181,-957,2762,-2342,-2959,-1235,-1503,128,443,425,0
3259847,1649,1645,1812,3500,-4025,-5649,-1334,-2822,-102,-2048,566,418,392,0
3263171,1651,1647,1718,0,-2667,-14942,-1841,-2758,307,-175,101,423,631,0
3266526,1652,1649,2356,1175,-2262,-20445,-1649,-2608,1252,-33,114,405,516,0
3269849,1653,1651,2975,0,1011,-18608,-1431,-2517,1833,405,-253,372,565,0
3273175,1655,1653,2450,0,8195,-14436,165,-2329,-188,848,295,400,563,0
3276527,1657,1655,2018,125,7901,-9633,1446,-2117,907,1338,581,423,556,0
3279848,1659,1657,1418,556,12006,-6694,1609,-1944,1548,782,756,439,517,0
3283179,1661,1659,1606,1193,20036,-1622,2694,-1743,-1997,786,437,445,483,0
3286527,1662,1660,1287,2225,14302,2497,2002,-1604,-1315,-648,2,462,444,0
3289848,1663,1661,1118,2225,5970,2390,2508,-1449,-849,-169,128,471,444,0
3293181,1664,1663,1400,1943,-1816,2248,1251,-1340,-857,454,420,472,459,0
3296527,1666,1665,1306,1512,-10562,-262,2205,-1204,-546,410,-200,477,482,0
3299850,1668,1667,1287,856,-13796,801,3399,-1007,547,-268,-418,462,501,0
3303184,1670,1669,950,50,-8962,1790,4553,-832,231,472,380,480,544,0
3306528,1672,1671,1006,312,-3739,1498,4814,-606,-350,-414,305,477,530,0
3309853,1674,1673,1100,818,-6998,-1189,4753,-392,907,51,677,472,503,0
3313187,1676,1675,368,1062,-2966,-3322,4468,-189,661,170,754,495,474,0
3316527,1678,1677,781,350,4259,-4093,5222,39,-1230,436,-71,473,512,0
3319856,1680,1679,968,743,-617,-798,5671,259,-182,93,-406,463,491,0
3323190,1682,1681,743,1643,-4769,994,5553,456,-531,-17,-113,475,459,0
3326528,1684,1682,1193,1250,-6399,-511,4917,682,-371,251,10,451,480,0
3329859,1686,1683,2225,837,-5852,-618,4899,964,706,-629,362,396,502,0
3333194,1686,1684,2450,1362,-2552,-525,4931,1261,973,1138,589,400,490,0
3336551,1688,1685,1606,1081,5367,5215,3688,1472,1099,-209,-340,445,521,0
3339862,1690,1686,556,1175,8739,7169,2245,1654,-1163,-652,-605,485,516,0
3343197,1692,1688,800,1381,5566,6358,293,1762,-679,-322,-731,472,505,0
3346555,1694,1690,968,968,-2384,5557,157,1830,270,374,474,463,527,0
3349865,1696,1692,893,800,-2122,4584,1344,1933,20,-514,-219,451,520,0
3353200,1698,1694,1062,1362,-3784,3425,2720,2050,-120,-432,-134,442,490,0
3356555,1700,1696,1343,875,-7005,2855,3393,2216,548,-16,442,427,516,0
3359869,1700,1698,1662,462,-2537,840,4587,2402,106,208,850,426,522,0
3363204,1701,1700,1512,1737,1047,-832,4082,2603,171,1249,292,450,454,0
3366561,1703,1702,931,1287,3187,759,3957,2768,661,1145,-87,481,478,0
3369872,1705,1704,1325,1306,6954,4463,5569,3000,-134,380,270,460,477,0
3373206,1707,1706,237,1175,5059,4724,4494,3192,376,-138,341,502,468,0
3376561,1709,1708,443,1268,6782,2251,5367,3404,836,-423,-364,491,463,0
3379875,1711,1709,631,1793,10512,-1324,5199,3562,-1658,-917,-887,481,451,0
3383210,1713,1710,1287,1456,3787,-4377,2838,3605,-948,-658,792,446,485,0
3386561,1715,1711,1868,1081,-2585,-9741,1987,3617,2047,1449,574,415,521,0
3389878,1716,1712,1737,556,5735,-11379,552,3550,151,213,493,422,549,0
3393213,1717,1713,2225,1156,13846,-12304,1285,3528,-1371,428,122,412,533,0
3396561,1719,1714,1587,2112,3704,-9824,-979,3419,-166,400,696,446,498,0
3399881,1721,1715,425,2487,4236,-5279,-2458,3303,-835,-47,892,492,478,0
3403216,1723,1717,312,2337,-857,-5063,-709,3212,-2048,-393,733,498,486,0
3406561,1725,1719,706,2731,-13425,-3499,-1568,3057,-1899,378,508,477,465,0
3409885,1727,1721,725,1700,-20698,-1882,-2653,2831,811,581,474,460,504,0
3413220,1729,1723,1700,1568,-17538,-541,-1297,2640,1337,597,1394,408,511,0
3416562,1730,1725,2600,368,-3498,147,1328,2533,1104,-371,1059,376,575,0
3419888,1731,1727,2487,1212,3172,186,1318,2435,-773,-415,313,382,514,0
3423222,1733,1729,2656,2150,-444,-316,1492,2318,207,132,828,373,464,0
3426562,1735,1731,1868,1831,872,-2565,1819,2198,355,1694,-73,415,481,0
3429891,1737,1733,968,1756,3250,-3191,1011,2056,187,729,16,463,485,0
3433225,1738,1735,1250,2056,4436,-702,514,1918,-88,810,12,464,485,0
3436563,1741,1736,125,1812,1758,3181,827,1791,734,-647,535,492,482,0
3439894,1741,1737,1868,2318,6306,2319,2083,1702,175,536,316,431,471,0
3443229,1742,1739,2281,1850,5442,528,975,1617,-50,195,189,425,496,0
3446587,1744,1741,1962,1643,3163,-489,1136,1583,73,200,-572,442,507,0
3449897,1746,1743,1587,612,5171,1160,2397,1648,-380,-321,-155,446,546,0
3453232,1748,1745,1025,762,9130,3017,651,1664,-1114,278,-296,476,538,0
3456588,1750,1747,818,1850,1579,3524,-2051,1558,470,-446,-342,487,480,0
3459901,1752,1749,725,912,4479,3194,-2192,1404,-691,-16,432,476,514,0
3463236,1754,1751,1025,612,5913,2062,-3165,1199,-371,-588,-382,460,530,0
3466588,1756,1753,575,631,-161,998,-2879,966,9,-361,148,484,529,0
3469904,1758,1755,387,837,-2059,572,-1177,802,-1369,-41,-486,478,502,0
3473238,1760,1757,1193,668,-8099,-82,-181,672,171,-460,436,467,511,0
3476588,1761,1759,1418,837,-9986,-777,790,523,390,739,326,439,502,0
3479907,1762,1761,1025,875,-7952,1549,1392,426,1123,692,450,460,484,0
3483241,1764,1763,631,1287,-3759,3848,3341,363,403,103,135,481,462,0
3486589,1766,1765,312,1156,-1738,4414,3365,306,367,338,467,498,469,0
3489910,1768,1767,500,762,967,2736,3704,333,946,-210,16,488,490,0
3493245,1770,1769,650,1006,3780,529,2477,348,265,-274,-37,464,477,0
3496589,1772,1771,668,0,10575,-1602,2619,412,-1386,638,-600,463,525,0
3499913,1774,1773,687,443,3685,1171,1147,408,-30,-325,-135,462,507,0
3503248,1776,1774,237,556,2657,1386,386,451,886,-264,-169,470,501,0
3506589,1778,1776,818,631,8256,1512,494,543,-167,363,-134,455,497,0
3509917,1780,1777,800,800,3159,871,-969,535,-373,1270,1224,440,488,0
3513251,1780,1779,2393,1700,-1323,-848,-2038,520,488,-37,1265,387,440,0
3516589,1782,1781,2562,2318,1293,-5096,-2811,515,-891,-138,975,378,407,0
3519920,1784,1783,1606,2262,-5056,-7708,-3172,457,-1058,632,807,429,410,0
3523255,1786,1783,462,1868,-10185,-8155,-3417,308,-811,125,327,474,447,0
3526589,1788,1784,237,1231,-14322,-4615,-2614,186,836,89,833,486,497,0
3529923,1790,1785,631,1156,-7968,-2917,-538,122,1106,564,749,449,501,0
3533257,1791,1785,2300,1081,-639,-2355,950,95,-423,-1648,230,392,537,0
3536621,1792,1786,2637,1756,-4338,1234,2082,128,1008,-244,648,374,517,0
3539926,1794,1788,1418,2056,-728,-1196,3783,231,-263,-111,386,423,485,0
3543261,1796,1790,481,2375,2395,-4270,3715,321,-190,60,772,473,468,0
3546617,1798,1792,462,2075,2085,-3910,2863,345,832,896,213,474,484,0
3549930,1800,1794,500,1793,6474,1004,2891,405,-803,300,-159,456,483,0
3553264,1802,1796,687,2375,7033,3609,3254,471,-775,1039,353,462,452,0
3556622,1804,1798,106,2168,1649,3153,3139,494,-78,669,357,477,463,0
3559933,1805,1800,1043,1325,1582,4212,3482,583,913,-942,-7,459,524,0
3563267,1806,1802,1006,1081,5122,3106,2051,711,802,658,-320,445,537,0
3566628,1808,1804,1362,743,9067,2916,3270,882,-939,496,-374,442,539,0
3569936,1810,1805,1268,1868,7004,4367,1099,1015,-441,-1012,-181,431,479,0
3573271,1812,1807,350,1756,1753,3233,72,1107,240,-249,-325,480,501,0
3576626,1814,1808,518,1550,4010,3376,-196,1138,640,-450,271,471,512,0
3579940,1816,1810,575,293,5366,3722,-1476,1097,-1050,-285,-295,452,563,0
3583273,1818,1812,1081,931,-612,2594,-1539,1025,232,508,443,441,545,0
3586627,1818,1813,1456,912,-4598,956,-914,953,156,33,-94,437,546,0
3589942,1819,1815,818,800,-6149,1487,588,867,-1297,-342,-201,471,536,0
3593277,1821,1817,1231,1962,-12465,839,1748,816,1582,575,602,449,506,0
3596627,1823,1819,1212,1250,-9589,2682,2618,782,444,209,19,450,512,0
3599945,1825,1820,1418,1568,-2939,4588,5030,862,344,-735,540,423,511,0
3603280,1827,1821,350,2750,-1295,2089,4296,914,-844,264,194,480,448,0
3606627,1829,1823,837,2543,-5021,-2714,5022,1035,418,-525,88,454,459,0
3609949,1831,1825,368,1456,-2937,-7934,4508,1164,-555,-31,399,463,501,0
3613283,1833,1827,856,893,-3386,-9776,3857,1269,1122,-147,-281,453,531,0
3616627,1834,1829,687,293,2121,-8902,2585,1380,400,450,-663,462,563,0
3619952,1835,1831,1231,387,3470,-5031,2332,1517,279,271,143,449,558,0
3623287,1836,1833,987,312,4408,-3678,2392,1680,-25,-47,46,462,546,0
3626627,1838,1835,1531,1137,3841,-3249,751,1802,-144,873,-194,433,502,0
3629956,1840,1837,2487,1850,-50,-5417,1155,1945,324,344,1322,382,464,0
3633290,1842,1839,2281,1343,3307,-3670,-55,2025,128,684,678,393,491,0
3636628,1842,1841,2768,893,2447,-4966,1402,2086,-621,260,1753,399,515,0
3639958,1843,1843,2187,0,1909,-7878,1179,2093,-1236,188,458,430,550,0
3643293,1845,1845,1118,350,-2232,-7874,434,2041,7,584,119,487,528,0
3646649,1847,1847,181,162,-1290,-3950,1494,1970,708,-245,173,537,538,0
3649961,1849,1849,256,781,1982,-3255,2885,1944,-886,195,286,517,489,0
3653296,1851,1851,1212,1062,-867,-1401,2636,1937,211,1210,506,466,474,0
3656653,1853,1853,2300,1493,-4380,2237,3085,1943,350,-133,482,408,451,0
3659965,1855,1853,1587,1718,-1327,4489,4239,1974,286,1998,915,430,455,0
3663299,1857,1855,1587,2000,2239,6112,3120,1973,-108,623,762,430,440,0
3666653,1859,1857,1343,1887,3010,6928,2774,1951,197,357,418,443,446,0
3669968,1860,1859,893,931,4036,8057,2703,1971,147,202,-79,467,481,0
3673303,1862,1861,462,800,2582,8459,2850,1958,1037,161,527,506,488,0
3676653,1864,1863,293,1306,7897,8215,3130,2022,671,-54,-493,499,461,0
3679971,1866,1865,818,631,10633,7534,793,2044,555,351,172,487,497,0
3683305,1867,1866,1193,1268,13608,5177,-525,2034,-425,502,-191,451,479,0
3686654,1868,1868,1118,1212,9218,5614,-895,2052,-942,-428,-313,471,466,0
3689974,1870,1869,1081,1306,4044,5429,-2265,2029,-366,-121,9,473,477,0
3693309,1872,1871,1493,1231,544,4785,-2699,1973,-301,819,480,451,481,0
3696654,1874,1873,1962,968,144,4163,-2418,1880,1037,675,727,426,495,0
3699977,1876,1875,1062,368,6822,1784,-2640,1742,-1605,-171,-299,458,511,0
3703313,1878,1877,950,387,1214,144,-1729,1607,-328,877,17,464,510,0
3706654,1880,1879,837,1343,-7662,1346,-1446,1404,132,186,445,470,459,0
3709981,1882,1881,631,800,-4060,1981,153,1275,-1097,96,-3,465,472,0
3713315,1884,1883,1250,1137,-12119,1650,1865,1176,58,-917,362,464,454,0
3716654,1885,1884,912,1718,-13151,-393,3153,1134,722,-65,403,466,439,0
3719984,1886,1885,706,1343,-8787,-3448,2807,1101,577,53,354,477,459,0
3723319,1888,1887,1081,893,-7404,-5432,3708,1136,403,-541,-60,457,483,0
3726676,1890,1889,237,725,-6910,-6615,2531,1142,421,35,143,502,492,0
3729987,1892,1891,406,443,-5248,-7018,2566,1148,320,-159,48,477,491,0
3733321,1894,1893,406,762,-1919,-6857,1978,1186,145,785,473,477,474,0
3736679,1896,1895,687,612,61,-5184,2361,1224,-177,202,-104,462,482,0
3739990,1898,1897,631,725,1422,-3997,1544,1274,-840,-676,-241,465,476,0
3743325,1900,1899,312,725,-2303,-4621,655,1250,-460,-124,352,466,460,0
3746680,1902,1900,893,1006,-3403,-5599,-368,1202,452,-1516,-127,435,461,0
3749993,1903,1901,2600,893,-973,-6938,-771,1164,1341,-784,742,376,483,0
3753328,1904,1902,2750,1043,9143,-7137,-839,1091,901,125,396,368,491,0
3756679,1906,1904,1868,593,14003,-6987,1100,1036,-939,374,425,415,515,0
3759997,1908,1906,1006,593,10900,-6367,1283,993,-1612,716,443,445,499,0
3763331,1910,1908,331,1250,-1071,-4546,2093,962,-280,-152,588,481,464,0
3766680,1912,1910,331,462,-3758,-4464,2319,902,277,-728,-404,481,506,0
3770000,1914,1912,143,593,853,-3873,1604,855,117,667,321,475,483,0
3773335,1916,1914,500,1643,3354,-129,4191,899,-634,-612,817,456,427,0
3776682,1917,1916,1325,1850,6,2902,4475,955,-674,1321,592,428,416,0
3780003,1918,1917,893,1568,-2677,5698,3363,971,-184,309,621,451,431,0
3783337,1920,1918,818,2318,-478,8665,3164,972,-175,1226,1021,455,407,0
3786680,1922,1920,1268,2806,167,10516,2210,1016,-799,-823,216,431,381,0
3790006,1924,1922,481,1325,-1681,9516,2341,1106,-1104,-658,172,457,444,0
3793342,1926,1924,312,1175,-8754,6312,2579,1214,1613,-151,54,466,452,0
3796681,1928,1925,387,462,-2187,4012,3489,1394,-492,-68,123,462,506,0
3800009,1930,1926,912,1325,6228,3096,1795,1534,-1118,215,-477,434,476,0
3803344,1931,1927,1231,1962,-2318,5657,-364,1599,501,1053,-38,433,458,0
3806681,1932,1929,2581,1362,1975,4251,-579,1663,521,-231,-45,361,474,0
3810013,1934,1931,3106,631,5365,1518,-218,1710,444,-732,511,333,513,0
3813371,1936,1933,2000,1343,10142,-3252,-323,1745,50,-1406,528,392,475,0
3816706,1937,1935,1550,1400,8484,-6012,-957,1711,-957,24,184,432,472,0
3820017,1938,1937,968,218,3310,-6509,-605,1633,-473,198,-26,463,519,0
3823374,1940,1939,781,181,-96,-5414,668,1556,-505,-61,-44,473,521,0
3826706,1942,1941,406,537,-4619,-4593,1082,1502,743,-109,-101,493,502,0
3830019,1944,1943,1718,556,-4734,-4596,1588,1436,148,324,101,423,501,0
3833378,1946,1945,1100,575,-1574,-3840,2585,1437,-998,-290,-236,440,484,0
3836706,1948,1947,1437,1418,-1106,-4567,2745,1443,-962,-391,-544,422,439,0
3840022,1950,1947,1043,1212,-8209,-4761,1158,1417,32,845,149,427,466,0
3843380,1952,1949,387,1343,-6210,-332,2721,1429,908,91,443,462,459,0
3846714,1953,1951,687,1212,-2213,713,4226,1512,673,104,483,462,466,0
3850026,1954,1953,200,725,-685,36,3995,1617,539,59,251,488,476,0
3853384,1956,1955,781,331,3845,-601,3294,1731,1030,-19,65,457,497,0
3856707,1958,1957,743,537,9838,-630,2501,1833,-93,-141,-252,459,486,0
3860029,1960,1959,500,462,12673,-1877,1322,1901,-1892,-159,-254,456,474,0
3863387,1962,1961,1006,1006,3690,-2592,580,1885,-1069,172,206,445,461,0
3866707,1964,1962,650,1775,-1445,-1287,-806,1819,-810,-209,380,448,420,0
3870032,1966,1963,406,2281,-4312,-816,-1686,1701,-674,218,441,461,409,0
3873389,1968,1965,1587,1418,-8015,693,-2642,1546,939,-304,359,398,455,0
3876713,1968,1967,2900,631,-4838,2432,-3479,1387,629,308,1098,360,497,0
3880035,1970,1969,2337,0,-88,1866,-2336,1183,355,-175,1132,374,528,0
3883393,1972,1971,856,162,4894,-358,-2002,981,-651,-124,428,453,506,0
3886707,1974,1973,0,856,2289,-1718,-1257,837,-1767,46,-238,501,469,0
3890038,1976,1975,12,912,-7952,-1049,-1579,688,1018,-134,-303,482,450,0
3893397,1978,1977,200,837,-3635,2277,745,643,885,-354,201,472,454,0
3896729,1979,1977,1493,1700,306,1192,2006,632,-648,-1216,-373,419,440,0
3900041,1980,1979,1400,1381,-1940,-865,1275,591,-445,1248,-48,424,441,0
3903397,1982,1981,1493,1493,-5112,2175,2370,556,209,56,684,419,435,0
3906733,1984,1983,1231,1250,-2514,3008,2782,587,58,76,592,433,448,0
3910045,1986,1985,106,762,-996,1222,3165,698,723,-297,366,477,458,0
3913397,1988,1987,0,368,3980,779,4053,842,1364,-207,-99,487,479,0
3916733,1990,1989,125,0,9831,659,2083,914,-676,-242,-252,476,509,0
3920048,1992,1990,537,556,10533,-147,306,934,-340,618,167,454,485,0
3923404,1993,1991,1043,1475,5849,914,-78,961,526,198,446,443,452,0
3926733,1994,1993,1250,968,6961,689,-325,970,-553,342,346,432,463,0
3930052,1996,1995,1643,1531,3069,1122,-1582,900,-981,-772,-142,411,433,0
3933398,1998,1997,1943,1737,-6879,383,-2359,792,-152,1741,589,395,422,0
3936734,2000,1999,2075,331,-8040,214,-3252,641,522,-238,335,372,481,0
3940055,2000,2001,2918,0,-5247,-1898,-3269,458,1691,395,940,359,528,0
3943398,2002,2003,1681,0,3926,-6425,-2436,296,100,-255,305,425,503,0
3946734,2004,2005,650,181,6320,-7618,-1195,223,-1835,560,-401,480,489,0
3950057,2006,2005,293,1306,-3103,-5852,-558,120,-340,1085,-12,483,445,0
3953404,2008,2006,931,1775,-9235,-2256,-1156,-47,469,-487,-329,465,452,0
3956734,2010,2008,781,1475,-5795,-2729,508,-156,-499,-424,-203,457,452,0
3960062,2012,2010,875,1250,-4894,-4444,565,-241,-959,433,404,436,448,0
3963398,2013,2012,1475,1062,-7154,-3468,1054,-286,138,413,397,420,458,0
3966734,2014,2014,1381,631,-4740,-563,1899,-268,211,-307,587,441,481,0
3970064,2015,2015,556,612,-479,861,2585,-206,1071,-266,550,485,482,0
3973423,2017,2016,462,556,6094,76,3146,-82,-206,-161,-273,490,501,0
3976756,2019,2017,0,837,5898,511,2459,46,382,233,-544,526,502,0
3980067,2021,2018,0,781,7956,2290,1871,187,20,96,-164,502,505,0
3983424,2023,2020,237,1362,8260,2912,-26,295,85,49,39,486,474,0
3986759,2025,2022,950,1681,5642,1857,-685,347,-382,-242,459,448,457,0
3990070,2027,2024,1137,1981,5379,1198,-1134,374,-1004,662,373,438,441,0
3993424,2029,2026,1175,1775,-2602,-44,-2333,340,-944,695,359,436,452,0
3996759,2031,2028,631,781,-8447,-610,-2599,308,69,836,279,449,489,0
4000073,2032,2029,2000,987,-8726,587,-2610,204,1529,-316,678,408,494,0
