"Data file recorded 2013/7/10  23:55:5"
"%  keyboard_telem with hall effect "
"%  motorgains    = [400, 0, 400, 0, 0, 400, 0, 400, 0, 0]"
"%  delta         = [16384, 16384, 16384, 16384]"
"%  intervals     = [35, 35, 15, 15]"
"% Columns: "
"% seq | time | LPos| RPos | LPWM | RPWM | GyroX | GryoY | GryoZ | GryoZAvg | AX | AY | AZ | LEMF | REMF | BAT | Steer"
1,5523,232,-12,202,-99,-2,-1,0,-1,4063,-423,229,-9,4,927,0
2,9034,236,-24,-49,-148,-2,-1,0,-1,4063,-423,229,1,6,927,0
3,12192,-12,-20,226,176,-1,-2,-2,-1,4080,-435,221,-9,-7,927,0
4,15526,232,-16,202,176,-1,-2,-2,-1,4080,-435,221,-9,-7,927,0
5,19042,0,0,-175,75,-1,-2,-2,-1,4080,-435,221,7,-3,927,0
6,22195,-16,-16,26,-149,0,-1,-1,-1,4048,-449,211,-1,6,927,0
7,25529,-16,-8,-99,175,0,-1,-1,-1,4048,-449,211,4,-7,927,0
8,29043,-12,0,-199,-150,0,-1,-1,-1,4096,-466,228,8,6,927,0
9,32198,232,4,52,99,0,-1,-1,-1,4096,-466,228,-3,-4,927,0
10,35533,232,0,102,175,0,-1,-1,-1,4096,-466,228,-5,-7,927,0
11,39050,0,-4,-200,75,0,0,-1,-1,4092,-454,210,8,-3,927,0
12,42201,-16,0,226,150,0,0,-1,-1,4092,-454,210,-9,-6,927,0
13,45536,-8,-4,150,125,0,2,-1,-1,4031,-419,215,-6,-5,927,0
14,49051,232,-4,-223,-175,0,2,-1,-1,4031,-419,215,8,7,927,0
15,52205,-12,-12,226,101,1,2,-1,-1,4061,-443,216,-9,-4,927,0
16,55539,232,-12,-73,-174,1,2,-1,-1,4061,-443,216,2,7,927,0
17,59058,232,-12,-173,101,1,2,-1,-1,4061,-443,216,6,-4,927,0
18,62208,232,-4,27,-150,-1,-1,1,-1,4071,-433,209,-2,6,927,0
19,65542,224,-20,-97,-174,-1,-1,1,0,4071,-433,209,3,7,927,0
20,69058,4,-8,-201,75,-1,0,-2,-1,4091,-422,230,8,-3,927,0
21,72211,228,8,27,74,-1,0,-2,-1,4091,-422,230,-2,-3,927,0
22,75545,224,-4,-122,-50,-1,0,-2,-1,4091,-422,230,4,2,927,0
23,79058,224,-4,178,-150,0,-1,-3,-1,4085,-429,216,-8,6,927,0
24,82214,232,-24,-223,-98,0,-1,-3,-1,4085,-429,216,8,4,927,0
25,85549,-12,-16,201,-99,-2,-2,-2,-1,4065,-433,236,-8,4,927,0
26,89065,236,0,-174,175,-2,-2,-2,-1,4065,-433,236,6,-7,927,0
27,92217,-8,-16,225,-49,-1,-3,-1,-1,4124,-448,224,-9,2,927,0
28,95552,224,0,-97,-150,-1,-3,-1,-1,4124,-448,224,3,6,926,0
29,99067,-4,0,-200,-175,-1,-3,-1,-1,4124,-448,224,8,7,927,0
30,102221,-12,-4,-2066,2041,-4,-2,-2,-1,4085,-420,245,0,0,927,0
31,105555,232,276,-2277,2176,-4,-2,-2,-1,4085,-420,245,2,-1,909,0
32,109070,-1108,1032,-1654,1685,-14,-13,8,0,3796,-352,-111,-25,23,907,0
33,112224,-1900,1800,-1288,1647,-14,-13,8,0,3796,-352,-111,-42,27,910,0
34,115558,-2912,2572,-827,1184,-14,-13,8,0,3796,-352,-111,-62,48,921,0
35,119080,-4228,4104,-1006,1017,-158,-287,259,7,5160,-1420,-555,-57,56,926,0
36,122227,-4976,5140,-1145,803,-158,-287,259,15,5160,-1420,-555,-54,66,925,0
37,125561,-5744,6424,-1207,915,-129,-655,460,30,3881,-830,-739,-54,62,926,0
38,129080,-6792,7968,-1738,622,-129,-655,460,44,3881,-830,-739,-36,75,925,0
39,132230,-7568,9240,-1549,885,-212,-1202,172,50,3927,910,-341,-46,65,923,0
40,135565,-8344,10532,-1511,896,-212,-1202,172,55,3927,910,-341,-50,65,922,0
41,139080,-9660,12560,-1390,506,-212,-1202,172,60,3927,910,-341,-57,80,923,0
42,142233,-10432,14088,-1427,619,-145,-1483,-330,50,4527,-423,274,-58,75,921,0
43,145568,-11464,15612,-1813,282,-145,-1483,-330,40,4527,-423,274,-44,88,926,0
44,149089,-12492,17896,-1595,392,229,-1637,-519,24,4338,-20,1312,-56,82,923,0
45,152237,-13524,19420,-1932,305,229,-1637,-519,7,4338,-20,1312,-44,85,926,0
46,155571,-14544,20920,-1769,71,229,-1637,-519,-8,4338,-20,1312,-52,94,922,0
47,159089,-15808,23076,-1854,-32,497,-973,-532,-24,4052,-776,2093,-51,97,924,0
48,162240,-16856,24604,-1788,56,497,-973,-532,-41,4052,-776,2093,-55,93,923,0
49,165574,-18348,25812,-1655,50,744,-192,-328,-51,3892,-435,1484,-60,94,924,0
50,169089,-20148,27572,-1437,436,744,-192,-328,-61,3892,-435,1484,-69,79,925,0
51,172243,-21652,29092,-3649,3072,561,637,-66,-64,4198,-1454,1211,-90,83,925,0
52,175577,-23412,30876,-3697,3442,561,637,-66,-66,4198,-1454,1211,-94,74,898,0
53,179089,-26728,33692,-2775,3069,561,637,-66,-68,4198,-1454,1211,-135,95,901,0
54,182246,-29756,35504,-2649,2837,678,480,629,-48,3787,-617,1436,-141,110,910,0
55,185581,-33276,37808,-1951,2757,678,480,629,-28,3787,-617,1436,-168,117,919,0
56,189089,-37564,41436,-1809,2405,947,1443,868,-1,4897,984,3308,-174,134,922,0
57,192249,-41156,44024,-1378,2097,947,1443,868,25,4897,984,3308,-190,149,924,0
58,195584,-44552,46868,-916,2089,947,1443,868,53,4897,984,3308,-208,151,927,0
59,199090,-48664,50928,-1541,1369,212,2879,847,79,4110,-1337,-3531,-184,181,927,0
60,202253,-51700,54192,882,-1276,212,2879,847,106,4110,-1337,-3531,-172,177,929,0
61,205587,-54076,56980,1052,-1586,-812,2627,331,116,1999,695,-1145,-175,184,923,0
62,209089,-56948,59312,450,-481,-812,2627,331,126,1999,695,-1145,-147,138,920,0
63,212256,-59032,60912,-259,-50,-2021,-1149,-1558,78,2547,404,-898,-116,120,926,0
64,215590,-61048,62168,101,1064,-2021,-1149,-1558,29,2547,404,-898,-128,76,934,0
65,219089,-63348,63728,-308,1419,-2021,-1149,-1558,-19,2547,404,-898,-110,63,929,0
66,222259,-65280,65044,-356,1503,-1212,-2280,-1266,-59,2702,-2751,-934,-106,60,927,0
67,225593,-66648,66316,-634,1016,-1212,-2280,-1266,-107,2702,-2751,-934,-95,80,924,0
68,229090,-68980,68392,-340,1196,-457,-28,524,-98,1517,-2201,1258,-105,72,926,0
69,232262,-70248,69640,-753,811,-457,-28,524,-96,1517,-2201,1258,-89,88,926,0
70,235597,-71572,71192,-736,872,-457,-28,524,-94,1517,-2201,1258,-90,85,927,0
71,239090,-73096,73252,-1320,954,-773,-113,835,-74,2780,578,-803,-68,81,925,0
72,242265,-74156,74800,-1179,640,-773,-113,835,-53,2780,578,-803,-75,93,924,0
73,245600,-74920,76592,-1541,452,-263,-625,655,-38,2300,1351,-219,-63,99,925,0
74,249091,-76212,78912,-2123,733,-263,-625,655,-7,2300,1351,-219,-42,86,923,0
75,252269,-77248,80680,-2134,298,-320,-2393,-461,-11,5086,-530,2322,-43,102,923,0
76,255603,-78276,82400,-1945,467,-320,-2393,-461,-9,5086,-530,2322,-52,94,919,0
77,259091,-80064,84652,-1479,130,-320,-2393,-461,-8,5086,-530,2322,-71,106,922,0
78,262272,-81080,86504,-1867,-39,198,-2489,-696,-13,2952,-530,818,-57,111,924,0
79,265606,-82600,88336,-1705,19,198,-2489,-696,-18,2952,-530,818,-63,107,924,0
80,269091,-84388,90648,-1488,176,651,-524,-16,-2,3786,42,3833,-72,99,925,0
81,272275,-85888,92164,-3800,3087,651,-524,-16,7,3786,42,3833,-83,92,926,0
82,275609,-87944,94356,-3800,3118,651,-524,-16,16,3786,42,3833,-74,95,898,0
83,279092,-91256,97192,-3149,2768,727,3164,-210,12,6214,-2185,1464,-124,115,904,0
84,282278,-94292,99508,-2697,2862,727,3164,-210,7,6214,-2185,1464,-143,115,910,0
85,285613,-97796,102060,-2050,2733,1158,2760,477,24,10141,-237,1574,-168,123,918,0
86,289092,-102344,105700,-1108,2179,1158,2760,477,20,10141,-237,1574,-205,148,921,0
87,292281,-105380,108276,-1031,2447,1468,1168,749,23,607,1922,-97,-209,140,926,0
88,295616,-108784,111372,-1318,2290,1468,1168,749,20,607,1922,-97,-197,147,927,0
89,299094,-113136,115652,-1695,1723,1468,1168,749,16,607,1922,-97,-182,170,925,0
90,302285,-115976,118956,709,-1401,56,1705,207,-4,7625,-343,-5193,-170,185,926,0
91,305619,-118788,121764,846,-1613,56,1705,207,-24,7625,-343,-5193,-170,188,923,0
92,309094,-121736,124604,176,-708,-1256,729,-483,-65,9361,1686,-1835,-139,148,921,0
93,312288,-124004,126504,186,-306,-1256,729,-483,-91,9361,1686,-1835,-136,130,923,0
94,315622,-126024,127768,246,458,-1256,729,-483,-116,9361,1686,-1835,-136,100,932,0
95,319094,-128632,129284,368,1192,-1220,-2508,-1602,-117,7696,-1876,-686,-138,72,931,0
96,322291,-130644,130324,127,1353,-1220,-2508,-1602,-119,7696,-1876,-686,-126,67,929,0
97,325649,-132132,131628,-390,1163,80,-3370,-840,-96,3787,-1084,-152,-105,75,925,0
98,329094,-134508,133424,-340,1170,80,-3370,-840,-83,3787,-1084,-152,-105,75,925,0
99,332294,-135788,134948,-677,1383,539,244,563,-26,5950,-4171,2332,-92,66,925,0
100,335649,-137084,136496,-763,1120,539,244,563,-25,5950,-4171,2332,-89,76,924,0
101,339094,-138388,138528,-1419,554,539,244,563,-24,5950,-4171,2332,-65,98,924,0
102,342297,-139400,140332,-1382,790,-2,-1072,1112,-5,7405,94,373,-68,87,923,0
103,345650,-140456,141868,-1916,677,-2,-1072,1112,3,7405,94,373,-48,91,923,0
104,349094,-141764,144164,-2071,686,-95,-1577,489,-7,4242,309,1314,-44,89,920,0
105,352301,-142792,145944,-1608,574,-95,-1577,489,-12,4242,309,1314,-64,92,924,0
106,355651,-143788,147944,-1898,391,-95,-1577,489,-18,4242,309,1314,-54,97,923,0
107,359094,-145608,150224,-1453,226,-139,-1234,48,-2,2678,-168,1676,-72,102,923,0
108,362304,-146620,151976,-1841,267,-139,-1234,48,13,2678,-168,1676,-58,99,924,0
109,365652,-148128,153884,-1381,-107,122,-9,336,38,2835,-779,2301,-76,112,924,0
110,369094,-149928,156172,-1513,-23,122,-9,336,70,2835,-779,2301,-71,107,926,0
111,372307,-151440,157884,-3800,2744,608,2233,310,102,3847,922,3106,-80,105,926,0
112,375651,-153212,160140,-3800,3369,608,2233,310,112,3847,922,3106,-77,84,900,0
113,379094,-156540,162720,-3123,2744,608,2233,310,122,3847,922,3106,-126,116,901,0
114,382310,-159560,165044,-2623,2812,1088,3638,-249,115,852,-527,-1323,-147,117,906,0
115,385652,-162860,167604,-1846,2582,1088,3638,-249,114,852,-527,-1323,-178,129,919,0
116,389094,-167380,171228,-1381,2455,1218,1787,-499,105,5342,-174,2981,-196,137,923,0
117,392313,-170940,174056,-904,2223,1218,1787,-499,74,5342,-174,2981,-214,148,926,0
118,395652,-174308,177136,-1245,2142,1218,1787,-499,44,5342,-174,2981,-200,152,928,0
119,399095,-178444,181220,-1667,1595,352,1658,-448,6,-70,98,-3985,-184,175,926,0
120,402317,-181252,184504,1175,-1468,352,1658,-448,-30,-70,98,-3985,-186,184,925,0
121,405652,-184056,187848,1174,-1945,-455,-192,-546,-71,11623,-3648,131,-175,190,933,0
122,409091,-187524,191992,912,-2025,-455,-192,-546,-94,11623,-3648,131,-151,177,934,0
123,412320,-190120,194552,1141,-2450,-455,-192,-546,-118,11623,-3648,131,-150,184,933,0
124,415654,-192712,196824,1194,-1897,-1459,299,281,-94,5079,-2413,860,-142,153,931,0
125,419092,-195700,199644,1311,-1347,-1459,299,281,-70,5079,-2413,860,-135,120,930,0
126,422323,-198260,201432,1586,-1597,-711,-3270,-513,-71,4080,-89,-490,-136,123,929,0
127,425657,-200272,203448,1707,-1693,-711,-3270,-513,-37,4080,-89,-490,-133,119,928,0
128,429092,-202876,205828,1862,-1401,295,56,805,37,6603,-848,1423,-129,98,928,0
129,432326,-204428,207892,2038,-1827,295,56,805,89,6603,-848,1423,-130,107,928,0
130,435661,-206004,209460,1367,-1881,295,56,805,140,6603,-848,1423,-97,103,927,0
131,439094,-207312,211932,945,-2272,169,392,1193,160,3924,110,-2169,-75,109,927,0
132,442329,-207820,213716,344,-2246,169,392,1193,180,3924,110,-2169,-49,101,927,0
133,445664,-208336,215472,-30,-2368,707,-2672,530,178,2916,1198,3184,-32,99,927,0
134,449094,-208360,218268,-478,-2816,707,-2672,530,160,2916,1198,3184,-14,106,927,0
135,452333,-208124,219628,-1001,-3174,707,-2672,530,142,2916,1198,3184,6,115,927,0
136,455667,-207856,221400,-1452,-3522,331,-3836,-553,110,6448,-209,2677,23,122,927,0
137,459094,-207300,223664,-1581,-3368,331,-3836,-553,77,6448,-209,2677,26,107,927,0
138,462336,-206776,225276,-1783,-3325,-112,-480,-107,58,2913,22,3742,32,99,927,0
139,465670,-206228,226504,-1736,-3270,-112,-480,-107,54,2913,22,3742,28,92,926,0
140,469094,-205424,228100,-2240,-3251,-452,3165,-667,31,5653,-711,1393,45,85,927,0
141,472339,-204640,229144,-1966,-3253,-452,3165,-667,0,5653,-711,1393,31,81,927,0
142,475673,-203820,230208,-2496,-3057,-452,3165,-667,-31,5653,-711,1393,49,69,927,0
143,479094,-203016,231500,-2775,-2933,351,4315,-193,-46,1372,-2403,-767,57,59,927,0
144,482342,-202208,232304,-2529,-3111,351,4315,-193,-62,1372,-2403,-767,44,63,927,0
145,485677,-201412,233056,-2731,-2885,632,-720,-660,-92,7007,-864,643,49,51,927,0
146,489094,-200072,233876,-2812,-2740,632,-720,-660,-105,7007,-864,643,47,42,927,0
147,492345,-199268,233900,-2941,-2717,632,-720,-660,-118,7007,-864,643,49,41,927,0
148,495680,-198192,234428,-3346,-2369,312,-459,-31,-103,3818,-1795,970,61,25,927,0
149,499094,-197180,234696,-3520,-2170,312,-459,-31,-89,3818,-1795,970,64,16,927,0
150,502349,-196664,234712,-3295,-2072,233,1939,543,-56,4372,738,-726,53,12,927,0
151,505683,-195916,234720,-3118,-2122,233,1939,543,-25,4372,738,-726,43,14,927,0
152,509094,-195400,234736,-3368,-1899,-254,251,-237,-19,3978,646,-671,51,5,927,0
153,512352,-194844,234712,-2798,-2022,-254,251,-237,-9,3978,646,-671,26,10,927,0
154,515686,-194616,234732,-2620,-1874,-254,251,-237,0,3978,646,-671,18,4,927,0
155,519095,-194360,234728,-2520,-1723,-208,-203,-694,-4,4767,-709,751,13,-2,927,0
156,522355,-194360,234728,-2545,-1823,-208,-203,-694,-34,4767,-709,751,14,2,927,0
157,525689,-194360,234480,-1995,-1749,-395,612,-328,-53,3956,-1347,-784,-8,0,927,0
158,529094,-194324,234456,-1899,-1822,-395,612,-328,-48,3956,-1347,-784,-12,3,927,0
159,532358,-194592,234452,-1947,-1821,-395,612,-328,-42,3956,-1347,-784,-9,3,927,0
160,535693,-194596,234460,-2072,-1697,-269,-496,-88,-70,3561,-1103,-201,-4,-2,927,0
161,539094,-194612,234208,-2045,-1672,-269,-496,-88,-98,3561,-1103,-201,-5,-2,927,0
162,542361,-194592,234212,-2122,-1573,-255,-250,543,-106,4185,-1151,-471,-2,-6,927,0
163,545696,-194612,234192,-2195,-1496,-255,-250,543,-126,4185,-1151,-471,1,-9,927,0
164,549095,-194588,234192,-2073,-1746,-379,-748,822,-138,4381,127,90,-4,1,927,0
165,552365,-194612,234196,-2270,-1771,-379,-748,822,-129,4381,127,90,4,2,927,0
166,555699,-194604,234216,-2346,-1723,-379,-748,822,-120,4381,127,90,7,0,927,0
167,559095,-194612,234192,-1970,-1496,-305,-1342,442,-122,3997,481,426,-8,-9,927,0
168,562368,-194584,233968,-2373,-1624,-305,-1342,442,-91,3997,481,426,8,-3,927,0
169,565702,-194604,233960,-2246,-1498,-286,-944,26,-73,3869,110,647,3,-8,927,0
170,569096,-194596,233944,-2347,-1522,-286,-944,26,-69,3869,110,647,7,-7,927,0
171,572371,-194608,233936,-1946,-1621,-286,-944,26,-65,3869,110,647,-9,-3,927,0
172,575705,-194588,233948,-1948,-1547,-194,-896,-348,-55,4238,-404,609,-9,-6,927,0
173,579096,-194608,233948,-2121,-1872,-194,-896,-348,-45,4238,-404,609,-2,7,927,0
174,582374,-194596,233944,-2022,-1572,-62,-678,-360,-35,4062,-843,962,-6,-5,927,0
175,585709,-194592,233932,-2072,-1545,-62,-678,-360,-40,4062,-843,962,-4,-6,927,0
176,589097,-194352,233952,-2146,-1597,-63,-646,-222,-41,3747,-815,1337,-2,-4,927,0
177,592377,-194368,233964,-2244,-1549,-63,-646,-222,-28,3747,-815,1337,2,-6,927,0
178,595712,-194344,233956,-2322,-1523,-63,-646,-222,-14,3747,-815,1337,5,-7,926,0
179,599096,-194612,233952,-1970,-1522,-62,-25,-2,6,3970,-763,1206,-8,-7,927,0
180,602381,-194608,233940,-2321,-1521,-62,-25,-2,7,3970,-763,1206,6,-7,927,0
181,605715,-194328,233948,-2223,-1572,-4,598,230,15,4197,-567,775,1,-5,927,0
182,609097,-194336,233932,-2047,-1670,-4,598,230,5,4197,-567,775,-6,-1,927,0
183,612384,-194596,233956,-2197,-1748,-4,598,230,-4,4197,-567,775,1,2,927,0
184,615718,-194576,233940,-1974,-1621,63,696,264,11,4130,-166,663,-8,-3,927,0
185,619097,-194352,233952,-2396,-1547,63,696,264,26,4130,-166,663,8,-6,927,0
186,622387,-194348,233936,-2396,-1546,87,990,127,38,4017,70,90,8,-6,927,0
187,625721,-194348,233928,-2196,-1670,87,990,127,63,4017,70,90,0,-1,927,0
188,629098,-194324,233952,-2049,-1872,109,805,-152,80,4083,-185,-4,-6,7,927,0
189,632390,-194340,233936,-2272,-1646,109,805,-152,86,4083,-185,-4,3,-2,927,0
190,635725,-194340,233952,-2072,-1522,109,805,-152,91,4083,-185,-4,-5,-7,927,0
191,639097,-194348,233952,-1996,-1872,108,644,-312,92,4122,-632,-2,-8,7,927,0
192,642393,-194340,233944,-1997,-1872,108,644,-312,85,4122,-632,-2,-8,7,926,0
193,645728,-194336,233956,-2397,-1723,79,462,-224,81,4151,-946,-17,8,1,927,0
194,649097,-194600,233940,-2372,-1546,79,462,-224,57,4151,-946,-17,8,-6,927,0
195,652397,-194348,233944,-2246,-1872,79,462,-224,33,4151,-946,-17,2,7,926,0
196,655731,-194344,233940,-2322,-1571,32,310,23,8,3997,-671,-206,5,-5,927,0
197,659098,-194356,233944,-2095,-1722,32,310,23,-16,3997,-671,-206,-4,1,927,0
198,662400,-194336,233956,-2147,-1873,-2,93,173,-37,4087,-326,-244,-2,7,927,0
199,665734,-194332,233952,-2123,-1672,-2,93,173,-45,4087,-326,-244,-3,-1,927,0
200,669098,-194348,233944,-2396,-1522,-29,-169,115,-55,4082,-246,-152,8,-7,927,0
201,672403,-194328,233964,-2198,-1524,-29,-169,115,-52,4082,-246,-152,0,-7,927,0
202,675737,-194328,233940,-2298,-1871,-29,-169,115,-50,4082,-246,-152,4,7,927,0
203,679098,-194348,233944,-2421,-1872,-50,-396,-1,-50,4063,-438,88,9,7,927,0
204,682406,-194596,233952,-2347,-1697,-50,-396,-1,-40,4063,-438,88,7,0,927,0
205,685741,-194344,233940,-2397,-1746,-57,-522,-19,-29,4076,-646,292,8,2,927,0
206,689098,-194336,233944,-2397,-1622,-57,-522,-19,-19,4076,-646,292,8,-3,927,0
207,692409,-194348,233964,-2396,-1599,-57,-522,-19,-8,4076,-646,292,8,-4,927,0
208,695744,-194336,233952,-2397,-1797,-69,-533,71,0,4053,-592,385,8,4,927,0
209,699099,-194344,233956,-2397,-1623,-69,-533,71,9,4053,-592,385,8,-3,927,0
210,702413,-194348,233952,-2371,-1597,-79,-490,151,21,4027,-375,561,7,-4,927,0
211,705747,-194360,233948,-2395,-1872,-79,-490,151,26,4027,-375,561,8,7,927,0
212,709098,-194352,233952,-1971,-1797,-64,-431,108,29,4045,-236,676,-9,4,927,0
213,712416,-194324,233948,-2074,-1622,-64,-431,108,25,4045,-236,676,-5,-3,927,0
214,715750,-194332,233952,-2298,-1672,-64,-431,108,22,4045,-236,676,4,-1,927,0
215,719101,-194332,233940,-2348,-1521,-28,-249,3,14,4014,-297,668,6,-7,927,0
216,722419,-194356,233944,-2070,-1547,-28,-249,3,6,4014,-297,668,-5,-6,927,0
217,725753,-194332,233952,-1998,-1622,3,-105,-100,-4,4038,-464,647,-8,-3,927,0
218,729101,-194352,233932,-2396,-1520,3,-105,-100,-11,4038,-464,647,8,-7,927,0
219,732422,-194352,233964,-2071,-1574,3,-105,-100,-18,4038,-464,647,-5,-5,927,0
220,735757,-194340,233936,-2397,-1696,24,48,-109,-17,4029,-599,586,8,0,927,0
221,739101,-194336,233964,-2097,-1799,24,48,-109,-16,4029,-599,586,-4,4,927,0
222,742425,-194340,233944,-2147,-1847,31,173,-43,-12,4097,-554,441,-2,6,927,0
223,745760,-194360,233952,-2070,-1797,31,173,-43,-4,4097,-554,441,-5,4,927,0
224,749101,-194340,233948,-2397,-1847,34,285,29,6,4087,-405,312,8,6,927,0
225,752429,-194344,233952,-2197,-1747,34,285,29,14,4087,-405,312,0,2,927,0
226,755763,-194352,233948,-1971,-1522,34,285,29,22,4087,-405,312,-9,-7,927,0
227,759101,-194348,233936,-1971,-1846,34,349,35,30,4054,-334,147,-9,6,927,0
228,762432,-194340,233948,-2222,-1872,34,349,35,30,4054,-334,147,1,7,926,0
229,765949,-194340,233952,-2222,-1722,32,252,-35,28,4025,-373,120,1,1,927,0
230,769101,-194332,233956,-1973,-1523,32,252,-35,22,4025,-373,120,-9,-7,927,0
231,772435,-194344,233940,-1997,-1571,32,252,-35,15,4025,-373,120,-8,-5,927,0
232,775952,-194344,233976,-2222,-1825,28,164,-83,9,4085,-516,112,1,5,927,0
233,779104,-194348,233944,-2096,-1747,28,164,-83,3,4085,-516,112,-4,2,927,0
234,782438,-194328,233956,-2398,-1523,13,59,-59,-1,4059,-578,147,8,-7,927,0
235,785956,-194348,233948,-2121,-1847,13,59,-59,-3,4059,-578,147,-3,6,927,0
236,789109,-194568,233944,-1975,-1672,-6,-25,13,-3,4071,-528,140,-8,-1,927,0
237,792441,-194352,233952,-2071,-1747,-6,-25,13,-2,4071,-528,140,-5,2,927,0
238,795959,-194340,233952,-2247,-1522,-6,-25,13,-1,4071,-528,140,2,-7,927,0
239,799110,-194340,233956,-2047,-1873,-20,-100,61,1,4067,-422,175,-6,7,927,0
240,802445,-194336,233964,-2397,-1524,-20,-100,61,0,4067,-422,175,8,-7,927,0
241,805962,-194336,233944,-2097,-1847,-28,-164,53,0,4065,-390,253,-4,6,927,0
242,809113,-194332,233956,-2123,-1723,-28,-164,53,-2,4065,-390,253,-3,1,927,0
243,812448,-194340,233960,-2047,-1573,-28,-164,53,-5,4065,-390,253,-6,-5,927,0
244,815965,-194344,233948,-2347,-1772,-27,-157,29,-8,4081,-437,386,6,3,927,0
245,819117,-194340,233964,-1997,-1549,-27,-157,29,-10,4081,-437,386,-8,-6,927,0
246,822451,-194348,233940,-2396,-1546,-21,-144,6,-13,4063,-474,468,8,-6,927,0
247,825968,-194332,233952,-2198,-1822,-21,-144,6,-13,4063,-474,468,0,5,927,0
248,829120,-194352,233932,-2071,-1645,-15,-65,16,-13,4029,-495,482,-5,-2,927,0
249,832454,-194328,233956,-2223,-1548,-15,-65,16,-9,4029,-495,482,1,-6,927,0
250,835972,-194344,233956,-2097,-1548,-15,-65,16,-6,4029,-495,482,-4,-6,927,0
251,839123,-194348,233960,-2196,-1873,-6,11,30,-2,4047,-466,507,0,7,927,0
252,842457,-194336,233952,-2322,-1647,-6,11,30,2,4047,-466,507,5,-2,927,0
253,845975,-194576,233952,-1949,-1597,5,84,25,6,4059,-398,457,-9,-4,926,0
254,849126,-194348,233936,-2396,-1521,5,84,25,8,4059,-398,457,8,-7,927,0
255,852461,-194332,233948,-1998,-1522,5,84,25,10,4059,-398,457,-8,-7,927,0
256,855976,-194328,233944,-2348,-1772,15,129,-6,9,4026,-403,399,6,3,927,0
257,859130,-194352,233964,-2321,-1599,15,129,-6,8,4026,-403,399,5,-4,927,0
258,862464,-194336,233940,-2297,-1571,24,150,-35,6,4057,-433,301,4,-5,927,0
259,865976,-194352,233948,-2346,-1672,24,150,-35,4,4057,-433,301,6,-1,927,0
260,869133,-194348,233960,-1996,-1873,25,138,-48,1,4060,-474,224,-8,7,927,0
261,872467,-194348,233964,-2396,-1699,25,138,-48,1,4060,-474,224,8,0,927,0
262,875984,-194328,233952,-1998,-1772,25,138,-48,0,4060,-474,224,-8,3,927,0
263,879137,-194328,233960,-2323,-1648,18,80,-43,0,4076,-490,177,5,-2,927,0
264,882470,-194336,233936,-1972,-1871,18,80,-43,1,4076,-490,177,-9,7,926,0
265,885985,-194328,233936,-2348,-1521,9,9,-33,3,4103,-484,140,6,-7,927,0
266,889139,-194336,233948,-2397,-1872,9,9,-33,4,4103,-484,140,8,7,927,0
267,892473,-194332,233948,-2373,-1672,9,9,-33,5,4103,-484,140,7,-1,927,0
268,895985,-194348,233964,-2021,-1774,-1,-33,-9,4,4044,-461,143,-7,3,926,0
269,899142,-194336,233956,-2397,-1798,-1,-33,-9,3,4044,-461,143,8,4,927,0
270,902477,-194344,233948,-2072,-1547,-11,-111,1,3,4100,-458,182,-5,-6,927,0
271,905993,-194340,233936,-2397,-1621,-11,-111,1,1,4100,-458,182,8,-3,927,0
272,909145,-194340,233952,-1972,-1872,-19,-178,7,0,4051,-472,230,-9,7,927,0
273,912480,-194348,233944,-2296,-1747,-19,-178,7,-1,4051,-472,230,4,2,927,0
274,915993,-194332,233940,-1998,-1871,-19,-178,7,-3,4051,-472,230,-8,7,926,0
275,919149,-194340,233952,-2122,-1522,-28,-215,13,-4,4078,-478,326,-3,-7,927,0
276,922483,-194352,233944,-2246,-1847,-28,-215,13,-4,4078,-478,326,2,6,927,0
277,926000,-194324,233952,-2024,-1647,-29,-216,16,-5,4063,-428,372,-7,-2,927,0
278,929152,-194332,233952,-2323,-1772,-29,-216,16,-4,4063,-428,372,5,3,926,0
279,932486,-194344,233948,-2272,-1522,-29,-216,16,-4,4063,-428,372,3,-7,927,0
280,936000,-194348,233960,-2096,-1873,-24,-179,13,-4,4036,-442,468,-4,7,927,0
281,939155,-194348,233968,-2021,-1624,-24,-179,13,-4,4036,-442,468,-7,-3,927,0
282,942489,-194576,233952,-2374,-1772,-16,-112,10,-5,4079,-445,510,8,3,927,0
283,946007,-194348,233940,-2371,-1696,-16,-112,10,-5,4079,-445,510,7,0,927,0
284,949159,-194344,233960,-2397,-1573,-4,13,14,-6,4049,-450,525,8,-5,927,0
285,952493,-194328,233948,-2023,-1697,-4,13,14,-6,4049,-450,525,-7,0,927,0
286,956008,-194340,233944,-2072,-1672,-4,13,14,-6,4049,-450,525,-5,-1,927,0
287,959161,-194356,233936,-2395,-1846,7,124,17,-7,4040,-448,511,8,6,927,0
288,962496,-194344,233964,-2047,-1599,7,124,17,-6,4040,-448,511,-6,-4,927,0
289,966008,-194336,233952,-2097,-1747,21,215,12,-5,4081,-446,443,-4,2,927,0
290,969166,-194324,233952,-2174,-1547,21,215,12,-4,4081,-446,443,-1,-6,927,0
291,972499,-194352,233948,-2021,-1547,21,215,12,-2,4081,-446,443,-7,-6,927,0
292,976016,-194328,233968,-2048,-1624,27,269,0,-1,4047,-432,353,-6,-3,927,0
293,979168,-194324,233968,-1974,-1824,27,269,0,0,4047,-432,353,-9,5,927,0
294,982502,-194352,233944,-2396,-1822,30,269,-12,1,4086,-450,278,8,5,926,0
295,986016,-194340,233960,-2322,-1548,30,269,-12,2,4086,-450,278,5,-6,927,0
296,989171,-194572,233956,-2299,-1823,27,223,-22,2,4080,-458,205,5,5,927,0
297,992505,-194344,233940,-2272,-1521,27,223,-22,3,4080,-458,205,3,-7,926,0
298,996023,-194328,233956,-2023,-1848,27,223,-22,3,4080,-458,205,-7,6,927,0
299,999175,-194328,233932,-2148,-1720,21,159,-28,3,4051,-479,190,-2,1,927,0
300,1002509,-194356,233940,-2095,-1846,21,159,-28,3,4051,-479,190,-4,6,927,0
301,1006023,-194340,233956,-1997,-1798,14,84,-30,2,4054,-456,153,-8,4,927,0
302,1009178,-194336,233960,-1997,-1873,14,84,-30,1,4054,-456,153,-8,7,927,0
303,1012512,-194356,233944,-2395,-1522,14,84,-30,0,4054,-456,153,8,-7,924,0
304,1016024,-194572,233952,-2374,-1672,3,-6,-24,0,4065,-497,137,8,-1,927,0
305,1019181,-194340,233952,-2397,-1872,3,-6,-24,-1,4065,-497,137,8,7,927,0
306,1022515,-194348,233956,-1996,-1723,-8,-96,-9,-1,4073,-479,119,-8,1,927,0
307,1026031,-194336,233948,-1972,-1647,-8,-96,-9,-2,4073,-479,119,-9,-2,927,0
308,1029184,-194336,233932,-2072,-1645,-18,-185,2,-2,4122,-465,190,-5,-2,927,0
309,1032518,-194348,233940,-2296,-1571,-18,-185,2,-3,4122,-465,190,4,-5,927,0
310,1036032,-194348,233956,-2246,-1823,-18,-185,2,-3,4122,-465,190,2,5,927,0
311,1039187,-194348,233964,-1971,-1649,-26,-228,13,-3,4076,-449,230,-9,-2,927,0
312,1042521,-194328,233956,-2398,-1823,-26,-228,13,-3,4076,-449,230,8,5,927,0
313,1046039,-194328,233936,-2148,-1746,-33,-265,16,-3,4067,-448,326,-2,2,927,0
314,1049191,-194328,233960,-2348,-1848,-33,-265,16,-3,4067,-448,326,6,6,927,0
315,1052525,-194340,233968,-1972,-1599,-33,-265,16,-3,4067,-448,326,-9,-4,926,0
316,1056039,-194332,233948,-2423,-1872,-35,-266,15,-3,4059,-443,389,9,7,927,0
317,1059193,-194364,233960,-1995,-1648,-35,-266,15,-3,4059,-443,389,-8,-2,927,0
318,1062528,-194328,233948,-2248,-1822,-28,-220,12,-3,4073,-462,451,2,5,927,0
319,1066039,-194332,233948,-2398,-1522,-28,-220,12,-3,4073,-462,451,8,-7,927,0
320,1069197,-194344,233956,-2022,-1848,-19,-146,9,-3,4059,-438,515,-7,6,927,0
321,1072531,-194340,233944,-2347,-1547,-19,-146,9,-3,4059,-438,515,6,-6,927,0
322,1076047,-194324,233940,-2349,-1671,-19,-146,9,-4,4059,-438,515,6,-1,927,0
323,1079200,-194336,233944,-2397,-1722,-8,-43,5,-4,4053,-442,533,8,1,927,0
324,1082534,-194336,233952,-1972,-1847,-8,-43,5,-4,4053,-442,533,-9,6,927,0
325,1086047,-194352,233964,-1971,-1649,6,73,2,-4,4056,-480,516,-9,-2,927,0
326,1089203,-194344,233936,-2197,-1871,6,73,2,-3,4056,-480,516,0,7,927,0
327,1092537,-194356,233960,-2295,-1598,6,73,2,-3,4056,-480,516,4,-4,926,0
328,1096054,-194340,233944,-2072,-1522,18,182,2,-2,4040,-450,444,-5,-7,926,0
329,1099206,-194348,233944,-1996,-1672,18,182,2,-1,4040,-450,444,-8,-1,927,0
330,1102541,-194328,233948,-2348,-1872,25,244,-1,-1,4076,-426,375,6,7,927,0
331,1106055,-194336,233936,-2247,-1521,25,244,-1,0,4076,-426,375,2,-7,927,0
332,1109209,-194340,233956,-1997,-1848,30,267,-4,0,4082,-441,280,-8,6,927,0
333,1112544,-194352,233944,-2096,-1847,30,267,-4,1,4082,-441,280,-4,6,927,0
334,1116061,-194336,233948,-1997,-1547,30,267,-4,2,4082,-441,280,-8,-6,927,0
335,1119213,-194328,233956,-2048,-1798,26,238,-11,2,4044,-459,231,-6,4,927,0
336,1122547,-194324,233948,-2099,-1822,26,238,-11,3,4044,-459,231,-4,5,927,0
337,1126062,-194344,233952,-2172,-1722,22,179,-19,3,4049,-455,197,-1,1,927,0
338,1129216,-194324,233952,-2074,-1547,22,179,-19,3,4049,-455,197,-5,-6,927,0
339,1132550,-194348,233948,-2396,-1522,22,179,-19,2,4049,-455,197,8,-7,927,0
340,1136063,-194336,233944,-2372,-1547,14,112,-21,2,4064,-463,208,7,-6,927,0
341,1139219,-194348,233956,-2171,-1548,14,112,-21,1,4064,-463,208,-1,-6,927,0
342,1142553,-194328,233944,-2048,-1547,7,39,-16,0,4076,-487,182,-6,-6,927,0
343,1146070,-194356,233960,-2120,-1548,7,39,-16,0,4076,-487,182,-3,-6,927,0
344,1149222,-194332,233964,-2398,-1524,-4,-38,-1,0,4072,-465,151,8,-7,927,0
345,1152557,-194352,233956,-1996,-1523,-4,-38,-1,-1,4072,-465,151,-8,-7,927,0
346,1156070,-194348,233952,-1971,-1597,-4,-38,-1,-1,4072,-465,151,-9,-4,927,0
347,1159225,-194340,233936,-2072,-1871,-12,-116,8,-1,4078,-452,208,-5,7,927,0
348,1162560,-194348,233948,-2396,-1822,-12,-116,8,-2,4078,-452,208,8,5,927,0
349,1166077,-194340,233960,-2347,-1523,-20,-177,8,-2,4033,-450,260,6,-7,927,0
350,1169229,-194344,233944,-2397,-1522,-20,-177,8,-2,4033,-450,260,8,-7,927,0
351,1172563,-194344,233932,-2022,-1520,-20,-177,8,-2,4033,-450,260,-7,-7,927,0
352,1176078,-194324,233944,-2399,-1672,-24,-222,5,-2,4067,-444,300,8,-1,927,0
353,1179232,-194324,233940,-2024,-1871,-24,-222,5,-2,4067,-444,300,-7,7,926,0
354,1182566,-194324,233952,-2349,-1822,-27,-229,4,-3,4083,-450,388,6,5,927,0
355,1186078,-194348,233956,-2296,-1823,-27,-229,4,-3,4083,-450,388,4,5,927,0
356,1189235,-194340,233948,-1972,-1872,-23,-191,8,-2,4064,-465,423,-9,7,927,0
357,1192569,-194348,233952,-1996,-1797,-23,-191,8,-2,4064,-465,423,-8,4,927,0
358,1196085,-194328,233948,-2048,-1522,-23,-191,8,-2,4064,-465,423,-6,-7,927,0
359,1199238,-194344,233952,-2397,-1697,-17,-141,7,-2,4067,-470,459,8,0,927,0
360,1202573,-194336,233960,-1972,-1848,-17,-141,7,-2,4067,-470,459,-9,6,926,0
361,1206086,-194344,233952,-2097,-1872,-9,-63,4,-2,4035,-445,454,-4,7,927,0
362,1209241,-194340,233940,-2422,-1571,-9,-63,4,-2,4035,-445,454,9,-5,927,0
363,1212576,-194328,233952,-2098,-1747,-9,-63,4,-1,4035,-445,454,-4,2,927,0
364,1216093,-194336,233956,-2347,-1523,0,15,0,-1,4046,-451,463,6,-7,927,0
365,1219245,-194332,233944,-2373,-1872,0,15,0,-1,4046,-451,463,7,7,927,0
366,1222579,-194328,233948,-2023,-1647,10,92,-2,-1,4051,-444,397,-7,-2,927,0
367,1226096,-194352,233960,-2021,-1523,10,92,-2,-1,4051,-444,397,-7,-7,927,0
368,1229248,-194336,233952,-1972,-1722,16,147,-3,-1,4074,-460,380,-9,1,927,0
369,1232582,-194356,233956,-2395,-1873,16,147,-3,0,4074,-460,380,8,7,927,0
370,1236096,-194356,233952,-1995,-1597,16,147,-3,0,4074,-460,380,-8,-4,927,0
371,1239251,-194336,233956,-2172,-1823,19,178,-4,0,4053,-439,307,-1,5,927,0
372,1242585,-194336,233956,-2097,-1848,19,178,-4,0,4053,-439,307,-4,6,927,0
373,1246096,-194328,233956,-2048,-1648,19,172,-6,1,4081,-454,244,-6,-2,927,0
374,1249254,-194340,233956,-2022,-1523,19,172,-6,1,4081,-454,244,-7,-7,927,0
375,1252589,-194356,233940,-2170,-1846,19,172,-6,2,4081,-454,244,-1,6,927,0
376,1256104,-194340,233948,-1972,-1822,15,138,-6,1,4078,-462,254,-9,5,927,0
377,1259257,-194328,233948,-1973,-1672,15,138,-6,1,4078,-462,254,-9,-1,927,0
378,1262592,-194332,233960,-2373,-1548,9,85,-6,1,4040,-466,226,7,-6,923,0
379,1266104,-194332,233928,-2398,-1545,9,85,-6,1,4040,-466,226,8,-6,927,0
380,1269261,-194344,233932,-2372,-1520,2,31,-1,0,4055,-463,230,7,-7,927,0
381,1272595,-194344,233944,-2072,-1747,2,31,-1,0,4055,-463,230,-5,2,927,0
382,1276113,-194332,233936,-2048,-1571,2,31,-1,0,4055,-463,230,-6,-5,927,0
383,1279264,-194344,233956,-2272,-1823,-4,-22,4,0,4093,-489,236,3,5,927,0
384,1282598,-194348,233968,-2421,-1524,-4,-22,4,0,4093,-489,236,9,-7,927,0
385,1286113,-194352,233948,-2321,-1772,-9,-73,4,0,4075,-451,246,5,3,927,0
386,1289267,-194336,233980,-2122,-1650,-9,-73,4,0,4075,-451,246,-3,-2,927,0
387,1292601,-194576,233936,-2174,-1846,-9,-73,4,0,4075,-451,246,0,6,927,0
388,1296114,-194332,233960,-2123,-1523,-13,-106,4,0,4059,-470,287,-3,-7,927,0
389,1299270,-194332,233952,-2398,-1647,-13,-106,4,0,4059,-470,287,8,-2,927,0
390,1302605,-194352,233936,-1996,-1571,-15,-124,0,0,4062,-461,344,-8,-5,927,0
391,1306114,-194332,233952,-2223,-1597,-15,-124,0,0,4062,-461,344,1,-4,927,0
392,1309273,-194332,233940,-2398,-1871,-13,-115,-1,0,4078,-458,374,8,7,927,0
393,1312608,-194340,233952,-2072,-1722,-13,-115,-1,-1,4078,-458,374,-5,1,927,0
394,1316115,-194336,233948,-2022,-1697,-13,-115,-1,-1,4078,-458,374,-7,0,927,0
395,1319277,-194344,233940,-2072,-1571,-10,-93,-1,-1,4062,-466,370,-5,-5,927,0
396,1322611,-194328,233952,-2323,-1847,-10,-93,-1,-1,4062,-466,370,5,6,927,0
397,1326115,-194340,233940,-2322,-1521,-6,-57,-1,-1,4053,-440,399,5,-7,927,0
398,1329280,-194332,233964,-2273,-1774,-6,-57,-1,-1,4053,-440,399,3,3,927,0
399,1332614,-194348,233940,-2071,-1846,-6,-57,-1,-1,4053,-440,399,-5,6,927,0
400,1336115,-194576,233956,-2374,-1548,-2,-15,-4,-1,4045,-439,396,8,-6,927,0
401,1339283,-194348,233960,-2371,-1523,-2,-15,-4,-1,4045,-439,396,7,-7,927,0
402,1342617,-194356,233948,-1995,-1847,2,25,-5,-1,4064,-457,372,-8,6,926,0
403,1346115,-194344,233964,-1997,-1774,2,25,-5,-1,4064,-457,372,-8,3,926,0
404,1349286,-194344,233956,-2397,-1523,5,55,-4,-1,4096,-456,323,8,-7,927,0
405,1352621,-194340,233952,-1972,-1847,5,55,-4,-1,4096,-456,323,-9,6,927,0
406,1356116,-194340,233952,-2272,-1772,5,55,-4,-1,4096,-456,323,3,3,927,0
407,1359289,-194340,233944,-2372,-1647,7,67,0,-1,4068,-441,308,7,-2,927,0
408,1362624,-194344,233956,-2172,-1848,7,67,0,0,4068,-441,308,-1,6,927,0
409,1366116,-194344,233968,-2322,-1849,5,65,1,0,4072,-472,283,5,6,927,0
410,1369293,-194352,233944,-2421,-1872,5,65,1,0,4072,-472,283,9,7,927,0
411,1372627,-194340,233956,-2047,-1523,5,65,1,0,4072,-472,283,-6,-7,927,0
412,1376116,-194352,233964,-2246,-1574,4,49,-1,0,4074,-450,284,2,-5,927,0
413,1379296,-194340,233956,-2372,-1823,4,49,-1,0,4074,-450,284,7,5,927,0
414,1382630,-194356,233952,-1970,-1522,3,31,-1,0,4094,-457,284,-9,-7,927,0
415,1386117,-194344,233940,-2022,-1571,3,31,-1,0,4094,-457,284,-7,-5,926,0
416,1389299,-194352,233956,-1971,-1573,0,13,1,0,4101,-466,291,-9,-5,927,0
417,1392633,-194340,233944,-2347,-1872,0,13,1,0,4101,-466,291,6,7,926,0
418,1396117,-194336,233952,-2397,-1872,0,13,1,0,4101,-466,291,8,7,927,0
419,1399302,-194348,233940,-1996,-1871,-3,-6,4,0,4097,-443,286,-8,7,927,0
420,1402637,-194356,233948,-2170,-1522,-3,-6,4,0,4097,-443,286,-1,-7,927,0
421,1406117,-194340,233956,-2097,-1623,-4,-16,6,0,4053,-451,314,-4,-3,927,0
422,1409305,-194324,233960,-1974,-1548,-4,-16,6,0,4053,-451,314,-9,-6,927,0
423,1412640,-194340,233960,-2272,-1798,-4,-16,6,0,4053,-451,314,3,4,927,0
424,1416117,-194360,233940,-2320,-1771,-5,-22,4,0,4065,-441,343,5,3,927,0
425,1419309,-194348,233964,-2021,-1574,-5,-22,4,0,4065,-441,343,-7,-5,927,0
426,1422643,-194332,233964,-2273,-1774,-4,-21,-2,0,4070,-450,319,3,3,927,0
427,1426117,-194352,233952,-2121,-1697,-4,-21,-2,0,4070,-450,319,-3,0,927,0
428,1429312,-194348,233936,-2396,-1596,-2,-11,-4,0,4075,-459,358,8,-4,926,0
429,1432646,-194332,233952,-2023,-1772,-2,-11,-4,0,4075,-459,358,-7,3,927,0
430,1436117,-194328,233940,-2123,-1796,-2,-11,-4,0,4075,-459,358,-3,4,927,0
431,1439315,-194340,233948,-2172,-1872,1,-2,-3,0,4095,-452,354,-1,7,927,0
432,1442649,-194348,233940,-2296,-1646,1,-2,-3,0,4095,-452,354,4,-2,927,0
433,1446117,-194332,233948,-2398,-1697,1,5,-2,0,4098,-454,327,8,0,927,0
434,1449318,-194344,233956,-2397,-1598,1,5,-2,0,4098,-454,327,8,-4,927,0
435,1452653,-194348,233948,-1996,-1522,1,5,-2,0,4098,-454,327,-8,-7,927,0
436,1456118,-194576,233944,-2174,-1572,0,5,-4,0,4081,-444,300,0,-5,927,0
437,1459321,-194324,233948,-2249,-1772,0,5,-4,0,4081,-444,300,2,3,926,0
438,1462656,-194340,233964,-2372,-1599,2,-3,-6,0,4063,-453,283,7,-4,927,0
439,1466118,-194332,233944,-2423,-1697,2,-3,-6,0,4063,-453,283,9,0,926,0
440,1469325,-194336,233944,-2397,-1547,0,-11,-6,0,4069,-465,296,8,-6,927,0
441,1472659,-194344,233948,-2122,-1847,0,-11,-6,0,4069,-465,296,-3,6,927,0
442,1476119,-194336,233952,-2097,-1847,0,-11,-6,-1,4069,-465,296,-4,6,927,0
443,1479328,-194332,233948,-2373,-1822,-2,-19,-4,-1,4071,-462,307,7,5,927,0
444,1482662,-194336,233948,-1997,-1522,-2,-19,-4,-1,4071,-462,307,-8,-7,927,0
445,1486119,-194348,233956,-1996,-1823,-3,-22,-1,-1,4035,-442,330,-8,5,927,0
446,1489331,-194336,233960,-2047,-1673,-3,-22,-1,-1,4035,-442,330,-6,-1,927,0
447,1492665,-194324,233944,-2399,-1772,-3,-22,-1,-1,4035,-442,330,8,3,927,0
448,1496120,-194348,233956,-2271,-1848,-4,-30,0,-1,4051,-444,333,3,6,927,0
449,1499334,-194340,233932,-2122,-1520,-4,-30,0,-1,4051,-444,333,-3,-7,927,0
450,1502669,-194328,233956,-2198,-1798,-5,-26,0,-1,4071,-460,324,0,4,927,0
451,1506119,-194336,233956,-2397,-1648,-5,-26,0,-1,4071,-460,324,8,-2,927,0
452,1509337,-194340,233964,-2172,-1599,-3,-19,-1,-1,4064,-459,353,-1,-4,926,0
453,1512672,-194336,233944,-2122,-1847,-3,-19,-1,-1,4064,-459,353,-3,6,923,0
454,1516119,-194336,233948,-2397,-1547,-3,-19,-1,-2,4064,-459,353,8,-6,927,0
455,1519341,-194348,233952,-2246,-1547,-2,-2,1,-2,4052,-443,373,2,-6,927,0
456,1522675,-194352,233936,-2271,-1821,-2,-2,1,-2,4052,-443,373,3,5,927,0
457,1526120,-194348,233956,-2296,-1573,1,23,3,-2,4074,-456,372,4,-5,927,0
458,1529344,-194340,233956,-2397,-1523,1,23,3,-2,4074,-456,372,8,-7,927,0
459,1532678,-194328,233952,-2023,-1797,1,23,3,-2,4074,-456,372,-7,4,927,0
460,1536120,-194340,233972,-2322,-1549,4,38,3,-1,4054,-459,327,5,-6,927,0
461,1539347,-194348,233932,-2096,-1520,4,38,3,-1,4054,-459,327,-4,-7,926,0
462,1542681,-194328,233952,-2348,-1872,3,48,1,-1,4070,-478,336,6,7,927,0
463,1546121,-194332,233932,-1998,-1870,3,48,1,-1,4070,-478,336,-8,7,927,0
464,1549350,-194328,233972,-2373,-1824,3,47,0,-1,4030,-459,311,7,5,927,0
465,1552685,-194344,233952,-2022,-1522,3,47,0,-1,4030,-459,311,-7,-7,927,0
466,1556121,-194336,233948,-2372,-1672,3,47,0,-1,4030,-459,311,7,-1,927,0
467,1559353,-194576,233940,-2299,-1871,4,37,-2,-1,4044,-462,304,5,7,927,0
468,1562688,-194332,233948,-2148,-1572,4,37,-2,-1,4044,-462,304,-2,-5,927,0
469,1566121,-194332,233948,-2423,-1522,0,24,-1,0,4060,-459,307,9,-7,927,0
470,1569357,-194348,233964,-2396,-1624,0,24,-1,0,4060,-459,307,8,-3,927,0
471,1572691,-194328,233948,-1998,-1647,0,24,-1,0,4060,-459,307,-8,-2,927,0
472,1576121,-194344,233956,-2022,-1873,0,1,-3,0,4068,-436,287,-7,7,927,0
473,1579360,-194336,233952,-2122,-1597,0,1,-3,0,4068,-436,287,-3,-4,927,0
474,1582694,-194324,233968,-1974,-1774,-3,-17,-2,0,4057,-467,291,-9,3,927,0
475,1586122,-194336,233940,-2272,-1871,-3,-17,-2,0,4057,-467,291,3,7,927,0
476,1589363,-194324,233956,-2399,-1848,-5,-38,-3,0,4052,-448,288,8,6,927,0
477,1592697,-194336,233956,-1972,-1523,-5,-38,-3,0,4052,-448,288,-9,-7,927,0
478,1596121,-194324,233960,-2274,-1648,-5,-38,-3,0,4052,-448,288,3,-2,926,0
479,1599366,-194328,233952,-2173,-1872,-5,-46,-2,0,4052,-467,338,-1,7,927,0
480,1602701,-194340,233948,-2422,-1647,-5,-46,-2,0,4052,-467,338,9,-2,927,0
481,1606121,-194336,233948,-2022,-1822,-5,-50,-3,0,4070,-456,341,-7,5,927,0
482,1609369,-194332,233956,-2023,-1623,-5,-50,-3,0,4070,-456,341,-7,-3,927,0
483,1612704,-194356,233956,-2245,-1698,-5,-50,-3,0,4070,-456,341,2,0,927,0
484,1616122,-194336,233956,-1997,-1648,-6,-43,-3,0,4092,-454,338,-8,-2,927,0
485,1619373,-194336,233952,-2022,-1797,-6,-43,-3,0,4092,-454,338,-7,4,927,0
486,1622707,-194336,233948,-2397,-1822,-5,-29,-2,0,4069,-471,345,8,5,927,0
487,1626122,-194368,233952,-2044,-1547,-5,-29,-2,0,4069,-471,345,-6,-6,927,0
488,1629376,-194344,233944,-2072,-1872,-2,-9,-1,-1,4068,-444,358,-5,7,927,0
489,1632710,-194332,233952,-2023,-1847,-2,-9,-1,-1,4068,-444,358,-7,6,927,0
490,1636122,-194336,233952,-2022,-1572,-2,-9,-1,-1,4068,-444,358,-7,-5,927,0
491,1639379,-194348,233936,-2046,-1871,-1,6,-1,-1,4080,-434,357,-6,7,927,0
492,1642713,-194336,233960,-1972,-1648,-1,6,-1,-1,4080,-434,357,-9,-2,926,0
493,1646122,-194340,233948,-1997,-1622,1,23,-2,-1,4047,-455,338,-8,-3,926,0
494,1649382,-194348,233944,-1996,-1847,1,23,-2,-1,4047,-455,338,-8,6,927,0
495,1652717,-194348,233960,-2346,-1623,1,23,-2,-1,4047,-455,338,6,-3,927,0
496,1656123,-194340,233948,-1972,-1822,3,30,-1,-1,4089,-449,322,-9,5,927,0
497,1659385,-194336,233940,-2197,-1546,3,30,-1,-1,4089,-449,322,0,-6,927,0
498,1662720,-194340,233972,-2197,-1674,2,36,0,-1,4057,-445,314,0,-1,927,0
499,1666123,-194332,233940,-1998,-1546,2,36,0,-1,4057,-445,314,-8,-6,927,0
500,1669389,-194576,233976,-1949,-1800,4,35,1,-1,4066,-489,301,-9,4,927,0
501,1672723,-194344,233952,-2372,-1772,4,35,1,-1,4066,-489,301,7,3,927,0
502,1676123,-194324,233948,-2349,-1722,4,35,1,-1,4066,-489,301,6,1,927,0
503,1679392,-194340,233944,-2247,-1522,2,27,0,-1,4052,-452,304,2,-7,926,0
504,1682726,-194340,233940,-2122,-1546,2,27,0,-1,4052,-452,304,-3,-6,927,0
505,1686124,-194576,233936,-1999,-1721,1,16,1,-1,4083,-469,274,-7,1,927,0
506,1689395,-194348,233936,-2121,-1846,1,16,1,-1,4083,-469,274,-3,6,927,0
507,1692729,-194344,233952,-2397,-1872,1,16,1,-1,4083,-469,274,8,7,927,0
508,1696124,-194348,233940,-2321,-1646,-2,1,0,-1,4044,-459,293,5,-2,927,0
509,1699398,-194340,233936,-2397,-1571,-2,1,0,-1,4044,-459,293,8,-5,927,0
510,1702733,-194332,233956,-1998,-1523,-1,-9,0,0,4059,-460,301,-8,-7,927,0
511,1706125,-194336,233944,-1972,-1822,-1,-9,0,0,4059,-460,301,-9,5,927,0
512,1709401,-194344,233960,-2072,-1673,-4,-16,0,0,4075,-456,328,-5,-1,927,0
513,1712736,-194340,233948,-2222,-1522,-4,-16,0,0,4075,-456,328,1,-7,927,0
514,1716125,-194340,233940,-2047,-1671,-4,-16,0,0,4075,-456,328,-6,-1,926,0
515,1719405,-194340,233948,-2047,-1822,-1,-18,-2,0,4069,-443,326,-6,5,927,0
516,1722739,-194348,233944,-2321,-1622,-1,-18,-2,0,4069,-443,326,5,-3,927,0
517,1726125,-194348,233956,-1971,-1823,-2,-17,-2,0,4061,-455,325,-9,5,927,0
518,1729408,-194336,233940,-2272,-1571,-2,-17,-2,0,4061,-455,325,3,-5,927,0
519,1732742,-194344,233940,-2172,-1696,-2,-17,-2,0,4061,-455,325,-1,0,927,0
520,1736125,-194340,233940,-1972,-1746,0,-14,-3,0,4050,-471,340,-9,2,927,0
521,1739411,-194336,233956,-1972,-1523,0,-14,-3,0,4050,-471,340,-9,-7,927,0
522,1742745,-194332,233948,-2373,-1647,-2,-11,-4,0,4088,-457,337,7,-2,926,0
523,1746125,-194324,233956,-2399,-1773,-2,-11,-4,0,4088,-457,337,8,3,927,0
524,1749414,-194348,233936,-2046,-1721,-1,-7,-3,0,4074,-437,317,-6,1,927,0
525,1752749,-194340,233948,-2347,-1572,-1,-7,-3,0,4074,-437,317,6,-5,927,0
526,1756125,-194336,233932,-2372,-1820,-1,-7,-3,0,4074,-437,317,7,5,927,0
527,1759417,-194344,233952,-2397,-1547,0,-6,-3,-1,4100,-465,335,8,-6,927,0
528,1762752,-194324,233940,-2099,-1796,0,-6,-3,-1,4100,-465,335,-4,4,923,0
529,1766126,-194344,233944,-2172,-1547,-2,-1,-2,-1,4046,-468,297,-1,-6,927,0
530,1769421,-194344,233960,-2247,-1698,-2,-1,-2,-1,4046,-468,297,2,0,927,0
531,1772755,-194336,233936,-2097,-1546,-2,-1,-2,-1,4046,-468,297,-4,-6,927,0
532,1776126,-194344,233948,-1972,-1822,0,-2,-2,-1,4080,-473,311,-9,5,927,0
533,1779424,-194352,233952,-1971,-1522,0,-2,-2,-1,4080,-473,311,-9,-7,927,0
534,1782758,-194344,233964,-2397,-1624,-3,-3,-1,-1,4083,-445,325,8,-3,927,0
535,1786126,-194332,233940,-2273,-1871,-3,-3,-1,-1,4083,-445,325,3,7,927,0
536,1789427,-194336,233956,-2022,-1523,-3,-3,0,-1,4066,-470,313,-7,-7,927,0
537,1792761,-194340,233944,-2372,-1797,-3,-3,0,-1,4066,-470,313,7,4,927,0
538,1796127,-194348,233952,-2171,-1522,-3,-3,0,-1,4066,-470,313,-1,-7,927,0
539,1799430,-194336,233944,-2022,-1872,-1,-1,0,-1,4091,-463,337,-7,7,927,0
540,1802765,-194324,233948,-2349,-1597,-1,-1,0,-1,4091,-463,337,6,-4,927,0
541,1806127,-194324,233948,-2399,-1647,-1,5,0,-1,4085,-453,333,8,-2,927,0
542,1809433,-194340,233956,-2397,-1523,-1,5,0,-1,4085,-453,333,8,-7,927,0
543,1812768,-194336,233948,-1972,-1872,-1,5,0,-1,4085,-453,333,-9,7,927,0
544,1816127,-194360,233952,-1970,-1772,0,11,1,-1,4050,-452,331,-9,3,927,0
545,1819437,-194324,233960,-2124,-1848,0,11,1,-1,4050,-452,331,-3,6,927,0
546,1822771,-194356,233956,-2395,-1548,0,16,0,-1,4020,-469,325,8,-6,927,0
547,1826127,-194332,233936,-2323,-1821,0,16,0,-1,4020,-469,325,5,5,926,0
548,1829440,-194340,233936,-2372,-1546,1,18,1,-1,4081,-459,343,7,-6,927,0
549,1832774,-194328,233932,-1973,-1620,1,18,1,-1,4081,-459,343,-9,-3,927,0
550,1836127,-194344,233960,-2172,-1598,1,18,1,-1,4081,-459,343,-1,-4,927,0
551,1839443,-194324,233956,-2274,-1773,1,18,1,-1,4070,-461,313,3,3,927,0
552,1842777,-194340,233948,-2072,-1847,1,18,1,0,4070,-461,313,-5,6,927,0
553,1846128,-194340,233948,-2022,-1872,0,13,0,0,4071,-464,325,-7,7,926,0
554,1849446,-194332,233940,-1973,-1696,0,13,0,0,4071,-464,325,-9,0,927,0
555,1852781,-194340,233952,-2022,-1547,0,13,0,0,4071,-464,325,-7,-6,927,0
556,1856128,-194348,233944,-2371,-1697,0,7,-1,0,4031,-473,309,7,0,927,0
557,1859449,-194348,233956,-2146,-1748,0,7,-1,0,4031,-473,309,-2,2,927,0
558,1862784,-194332,233944,-2048,-1797,-2,-1,-2,0,4064,-442,307,-6,4,927,0
559,1866128,-194336,233960,-2297,-1548,-2,-1,-2,0,4064,-442,307,4,-6,927,0
560,1869453,-194352,233952,-1996,-1572,-2,-12,-2,0,4067,-455,299,-8,-5,927,0
561,1872787,-194332,233948,-2023,-1522,-2,-12,-2,0,4067,-455,299,-7,-7,927,0
562,1876129,-194328,233964,-2273,-1824,-2,-12,-2,0,4067,-455,299,3,5,927,0
563,1879456,-194576,233972,-2374,-1524,-3,-19,-2,0,4066,-442,307,8,-7,927,0
564,1882790,-194340,233936,-1972,-1746,-3,-19,-2,0,4066,-442,307,-9,2,927,0
565,1886129,-194336,233948,-2222,-1672,-2,-25,-3,0,4045,-463,330,1,-1,927,0
566,1889459,-194336,233936,-1997,-1521,-2,-25,-3,0,4045,-463,330,-8,-7,927,0
567,1892976,-194348,233960,-2396,-1523,-2,-25,-3,0,4045,-463,330,8,-7,927,0
568,1896129,-194348,233964,-2046,-1874,-3,-24,-3,0,4069,-458,325,-6,7,927,0
569,1899462,-194328,233960,-1998,-1523,-3,-24,-3,0,4069,-458,325,-8,-7,927,0
570,1902979,-194352,233956,-2021,-1623,-4,-23,-1,0,4094,-465,321,-7,-3,926,0
571,1906131,-194336,233964,-2297,-1824,-4,-23,-1,0,4094,-465,321,4,5,927,0
572,1909465,-194336,233944,-2047,-1872,-2,-14,-2,0,4020,-456,332,-6,7,927,0
573,1912982,-194364,233944,-1995,-1647,-2,-14,-2,0,4020,-456,332,-8,-2,927,0
574,1916134,-194324,233948,-2399,-1822,-2,-14,-2,-1,4020,-456,332,8,5,926,0
575,1919469,-194336,233956,-2397,-1748,-1,-4,-2,-1,4039,-468,327,8,2,927,0
576,1922986,-194332,233944,-2398,-1747,-1,-4,-2,-1,4039,-468,327,8,2,927,0
577,1926137,-194340,233932,-1997,-1620,-2,3,-1,-1,4070,-466,354,-8,-3,927,0
578,1929472,-194324,233940,-2049,-1521,-2,3,-1,-1,4070,-466,354,-6,-7,926,0
579,1932989,-194332,233956,-2323,-1598,-2,3,-1,-1,4070,-466,354,5,-4,927,0
580,1936141,-194348,233948,-2021,-1547,0,13,-1,-1,4054,-461,336,-7,-6,927,0
581,1939475,-194332,233944,-2398,-1622,0,13,-1,-1,4054,-461,336,8,-3,927,0
582,1942992,-194336,233964,-2397,-1574,0,18,-1,-1,4078,-463,317,8,-5,927,0
583,1946144,-194332,233940,-2148,-1621,0,18,-1,-1,4078,-463,317,-2,-3,927,0
584,1949478,-194324,233960,-2374,-1748,2,22,-1,-1,4066,-464,330,7,2,927,0
585,1952996,-194576,233952,-2374,-1872,2,22,-1,-1,4066,-464,330,8,7,927,0
586,1956147,-194352,233940,-2021,-1571,2,22,-1,-1,4066,-464,330,-7,-5,927,0
587,1959481,-194352,233956,-2296,-1698,1,19,-1,-1,4090,-454,332,4,0,927,0
588,1962998,-194324,233956,-1974,-1623,1,19,-1,-1,4090,-454,332,-9,-3,927,0
589,1966150,-194340,233964,-2372,-1849,0,15,-1,-1,4063,-449,303,7,6,927,0
590,1969485,-194324,233964,-2399,-1574,0,15,-1,-1,4063,-449,303,8,-5,927,0
591,1973002,-194340,233956,-2397,-1598,0,15,-1,-1,4063,-449,303,8,-4,927,0
592,1976153,-194576,233960,-2049,-1548,0,8,0,-1,4074,-465,305,-5,-6,927,0
593,1979488,-194340,233952,-2347,-1872,0,8,0,-1,4074,-465,305,6,7,927,0
594,1983004,-194336,233964,-2397,-1674,-1,2,0,-1,4077,-457,303,8,-1,927,0
595,1986157,-194340,233944,-1972,-1872,-1,2,0,-1,4077,-457,303,-9,7,927,0
596,1989491,-194328,233940,-2223,-1796,-1,-7,0,-1,4048,-465,322,1,4,927,0
597,1993004,-194340,233944,-2247,-1722,-1,-7,0,-1,4048,-465,322,2,1,927,0
598,1996160,-194332,233956,-2048,-1523,-1,-7,0,-1,4048,-465,322,-6,-7,927,0
599,1999494,-194340,233952,-2322,-1547,-3,-10,-1,-1,4064,-467,330,5,-6,927,0
600,2003012,-194348,233940,-2146,-1846,-3,-10,-1,-1,4064,-467,330,-2,6,927,0
